id_no,Participant.Private.ID,Spreadsheet.Row,Trial,RT,Response,Accuracy,target_audio,target_shape,Block
3,1914013,12,1,2796.43,Shape1B.png,1,bix.mp3,Shape1B.jpg,1
3,1914013,13,2,1654.245,Shape4B.png,1,fum.mp3,Shape4B.jpg,1
3,1914013,14,3,1501.835,Shape2B.png,1,fip.mp3,Shape2B.jpg,1
3,1914013,18,4,2249.695,Shape11B.png,1,pag.mp3,Shape11B.jpg,1
3,1914013,19,5,1413.705,Shape8B.png,1,dep.mp3,Shape8B.jpg,1
3,1914013,17,6,1310.48,Shape12B.png,1,pof.mp3,Shape12B.jpg,1
3,1914013,24,7,2247.39,Shape2B.png,1,fip.mp3,Shape2B.jpg,1
3,1914013,22,8,1475.045,Shape5B.png,1,gex.mp3,Shape5B.jpg,1
3,1914013,23,9,993.04,Shape8B.png,1,dep.mp3,Shape8B.jpg,1
3,1914013,28,10,2820.98,Shape3B.png,1,beb.mp3,Shape3B.jpg,1
3,1914013,30,11,1454.61,Shape7B.png,1,saf.mp3,Shape7B.jpg,1
3,1914013,29,12,1080.485,Shape10B.png,1,dod.mp3,Shape10B.jpg,1
3,1914013,35,13,2287.65,Shape10B.png,1,dod.mp3,Shape10B.jpg,2
3,1914013,33,14,2371.325,Shape4B.png,1,fum.mp3,Shape4B.jpg,2
3,1914013,34,15,2231.345,Shape10B.png,1,dod.mp3,Shape10B.jpg,2
3,1914013,38,16,1406.27,Shape7B.png,1,saf.mp3,Shape7B.jpg,2
3,1914013,39,17,1151.1,Shape1B.png,1,bix.mp3,Shape1B.jpg,2
3,1914013,40,18,1665.11,Shape5B.png,1,gex.mp3,Shape5B.jpg,2
3,1914013,44,19,3009.78,Shape3B.png,1,beb.mp3,Shape3B.jpg,2
3,1914013,45,20,1309.635,Shape9B.png,1,sut.mp3,Shape9B.jpg,2
3,1914013,46,21,3065.66,Shape12B.png,1,pof.mp3,Shape12B.jpg,2
3,1914013,49,22,2287.765,Shape9B.png,1,sut.mp3,Shape9B.jpg,2
3,1914013,50,23,1491.445,Shape8B.png,1,dep.mp3,Shape8B.jpg,2
3,1914013,51,24,2152.345,Shape11B.png,1,pag.mp3,Shape11B.jpg,2
3,1914013,54,25,1349.34,Shape8B.png,0,sut.mp3,Shape9B.jpg,3
3,1914013,56,26,2968.945,Shape5B.png,1,gex.mp3,Shape5B.jpg,3
3,1914013,55,27,1837.23,Shape2B.png,1,fip.mp3,Shape2B.jpg,3
3,1914013,61,28,1687.05,Shape4B.png,1,fum.mp3,Shape4B.jpg,3
3,1914013,62,29,2355.675,Shape12B.png,1,pof.mp3,Shape12B.jpg,3
3,1914013,65,32,2049.495,Shape1B.png,1,bix.mp3,Shape1B.jpg,3
3,1914013,66,33,2140.99,Shape6B.png,1,gop.mp3,Shape6B.jpg,3
3,1914013,70,34,1785.13,Shape11B.png,1,pag.mp3,Shape11B.jpg,3
3,1914013,71,35,1480.495,Shape7B.png,1,saf.mp3,Shape7B.jpg,3
3,1914013,72,36,1555.825,Shape3B.png,1,beb.mp3,Shape3B.jpg,3
199,1922129,12,1,1583.1,Shape1B.png,1,bix.mp3,Shape1B.jpg,1
199,1922129,13,2,1661.5,Shape4B.png,1,fum.mp3,Shape4B.jpg,1
199,1922129,14,3,2169.7,Shape5B.png,0,fip.mp3,Shape2B.jpg,1
199,1922129,17,4,2879.4,Shape12B.png,1,pof.mp3,Shape12B.jpg,1
199,1922129,19,5,2603.5,Shape3B.png,0,dep.mp3,Shape8B.jpg,1
199,1922129,18,6,1807.1,Shape11B.png,1,pag.mp3,Shape11B.jpg,1
199,1922129,24,7,1642,Shape2B.png,1,fip.mp3,Shape2B.jpg,1
199,1922129,22,8,1341.4,Shape5B.png,1,gex.mp3,Shape5B.jpg,1
199,1922129,23,9,2050.6,Shape5B.png,0,dep.mp3,Shape8B.jpg,1
199,1922129,28,10,1357.8,Shape3B.png,1,beb.mp3,Shape3B.jpg,1
199,1922129,30,11,1541.9,Shape7B.png,1,saf.mp3,Shape7B.jpg,1
199,1922129,29,12,2616.8,Shape10B.png,1,dod.mp3,Shape10B.jpg,1
199,1922129,35,13,3247.4,Shape10B.png,1,dod.mp3,Shape10B.jpg,2
199,1922129,33,14,2351.6,Shape4B.png,1,fum.mp3,Shape4B.jpg,2
199,1922129,34,15,1768.4,Shape6B.png,0,dod.mp3,Shape10B.jpg,2
199,1922129,38,16,2088.7,Shape7B.png,1,saf.mp3,Shape7B.jpg,2
199,1922129,39,17,3091,Shape1B.png,1,bix.mp3,Shape1B.jpg,2
199,1922129,40,18,2144.8,Shape5B.png,1,gex.mp3,Shape5B.jpg,2
199,1922129,45,19,1395.1,Shape9B.png,1,sut.mp3,Shape9B.jpg,2
199,1922129,44,20,1883.3,Shape3B.png,1,beb.mp3,Shape3B.jpg,2
199,1922129,46,21,2018.6,Shape12B.png,1,pof.mp3,Shape12B.jpg,2
199,1922129,50,22,3014.2,Shape8B.png,1,dep.mp3,Shape8B.jpg,2
199,1922129,49,23,2419.1,Shape9B.png,1,sut.mp3,Shape9B.jpg,2
199,1922129,51,24,1931,Shape11B.png,1,pag.mp3,Shape11B.jpg,2
199,1922129,54,25,1818.7,Shape9B.png,1,sut.mp3,Shape9B.jpg,3
199,1922129,56,26,2957.6,Shape5B.png,1,gex.mp3,Shape5B.jpg,3
199,1922129,55,27,1765.6,Shape2B.png,1,fip.mp3,Shape2B.jpg,3
199,1922129,62,28,3167.3,Shape12B.png,1,pof.mp3,Shape12B.jpg,3
199,1922129,60,29,2025.4,Shape6B.png,1,gop.mp3,Shape6B.jpg,3
199,1922129,61,30,1768.5,Shape4B.png,1,fum.mp3,Shape4B.jpg,3
199,1922129,66,31,2520.7,Shape6B.png,1,gop.mp3,Shape6B.jpg,3
199,1922129,65,33,2376.1,Shape1B.png,1,bix.mp3,Shape1B.jpg,3
199,1922129,72,34,1697.4,Shape3B.png,1,beb.mp3,Shape3B.jpg,3
199,1922129,70,35,1682.9,Shape11B.png,1,pag.mp3,Shape11B.jpg,3
199,1922129,71,36,1691.1,Shape7B.png,1,saf.mp3,Shape7B.jpg,3
30,1928541,14,1,3983.625,Shape5B.png,0,fip.mp3,Shape2B.jpg,1
30,1928541,13,2,2097,Shape4B.png,1,fum.mp3,Shape4B.jpg,1
30,1928541,12,3,2491.575,Shape1B.png,1,bix.mp3,Shape1B.jpg,1
30,1928541,18,4,1931,Shape11B.png,1,pag.mp3,Shape11B.jpg,1
30,1928541,19,5,1494.22,Shape8B.png,1,dep.mp3,Shape8B.jpg,1
30,1928541,17,6,2659.785,Shape12B.png,1,pof.mp3,Shape12B.jpg,1
30,1928541,22,7,1621.765,Shape5B.png,1,gex.mp3,Shape5B.jpg,1
30,1928541,23,8,2090.37,Shape8B.png,1,dep.mp3,Shape8B.jpg,1
30,1928541,24,9,1989.315,Shape2B.png,1,fip.mp3,Shape2B.jpg,1
30,1928541,28,10,1555.15,Shape3B.png,1,beb.mp3,Shape3B.jpg,1
30,1928541,29,11,2137.445,Shape10B.png,1,dod.mp3,Shape10B.jpg,1
30,1928541,30,12,2568.205,Shape7B.png,1,saf.mp3,Shape7B.jpg,1
30,1928541,33,13,3023.59,Shape4B.png,1,fum.mp3,Shape4B.jpg,2
30,1928541,35,14,1944.605,Shape10B.png,1,dod.mp3,Shape10B.jpg,2
30,1928541,34,15,2055.29,Shape10B.png,1,dod.mp3,Shape10B.jpg,2
30,1928541,39,16,1808.315,Shape1B.png,1,bix.mp3,Shape1B.jpg,2
30,1928541,40,17,3715.395,Shape5B.png,1,gex.mp3,Shape5B.jpg,2
30,1928541,38,18,2870.465,Shape7B.png,1,saf.mp3,Shape7B.jpg,2
30,1928541,46,19,2102.885,Shape12B.png,1,pof.mp3,Shape12B.jpg,2
30,1928541,44,20,1649.7,Shape3B.png,1,beb.mp3,Shape3B.jpg,2
30,1928541,45,21,1950.79,Shape9B.png,1,sut.mp3,Shape9B.jpg,2
30,1928541,50,22,1899.51,Shape8B.png,1,dep.mp3,Shape8B.jpg,2
30,1928541,51,23,4523.55,Shape2B.png,0,pag.mp3,Shape11B.jpg,2
30,1928541,49,24,3458.295,Shape9B.png,1,sut.mp3,Shape9B.jpg,2
30,1928541,54,25,1620.955,Shape9B.png,1,sut.mp3,Shape9B.jpg,3
30,1928541,55,26,1787.33,Shape2B.png,1,fip.mp3,Shape2B.jpg,3
30,1928541,56,27,2051.75,Shape5B.png,1,gex.mp3,Shape5B.jpg,3
30,1928541,62,28,2613.965,Shape12B.png,1,pof.mp3,Shape12B.jpg,3
30,1928541,61,29,1360.77,Shape4B.png,1,fum.mp3,Shape4B.jpg,3
30,1928541,60,30,1914.475,Shape6B.png,1,gop.mp3,Shape6B.jpg,3
30,1928541,66,31,1547.105,Shape6B.png,1,gop.mp3,Shape6B.jpg,3
30,1928541,65,32,2162.68,Shape1B.png,1,bix.mp3,Shape1B.jpg,3
30,1928541,67,33,2841.04,Shape6B.png,1,gop.mp3,Shape6B.jpg,3
30,1928541,70,34,2403.165,Shape11B.png,1,pag.mp3,Shape11B.jpg,3
30,1928541,72,35,1816.42,Shape3B.png,1,beb.mp3,Shape3B.jpg,3
30,1928541,71,36,2742.02,Shape7B.png,1,saf.mp3,Shape7B.jpg,3
94,1918630,13,1,1956.92,Shape8B.png,1,dep.mp3,Shape8B.jpg,1
94,1918630,14,2,2490.115,Shape2B.png,1,fip.mp3,Shape2B.jpg,1
94,1918630,12,3,1214.315,Shape5B.png,1,gex.mp3,Shape5B.jpg,1
94,1918630,19,4,2319.395,Shape7B.png,1,saf.mp3,Shape7B.jpg,1
94,1918630,18,5,2759.8,Shape10B.png,1,dod.mp3,Shape10B.jpg,1
94,1918630,17,6,2135.77,Shape3B.png,1,beb.mp3,Shape3B.jpg,1
94,1918630,23,7,2190.82,Shape8B.png,1,dep.mp3,Shape8B.jpg,1
94,1918630,24,8,2616.675,Shape11B.png,1,pag.mp3,Shape11B.jpg,1
94,1918630,22,9,1876.36,Shape9B.png,1,sut.mp3,Shape9B.jpg,1
94,1918630,29,10,1872.935,Shape11B.png,1,pag.mp3,Shape11B.jpg,1
94,1918630,30,11,1499.18,Shape8B.png,1,dep.mp3,Shape8B.jpg,1
94,1918630,28,12,2314.345,Shape12B.png,1,pof.mp3,Shape12B.jpg,1
94,1918630,35,13,3304.81,Shape3B.png,1,beb.mp3,Shape3B.jpg,2
94,1918630,33,14,1819.55,Shape11B.png,1,pag.mp3,Shape11B.jpg,2
94,1918630,34,15,4011.345,Shape7B.png,1,saf.mp3,Shape7B.jpg,2
94,1918630,39,16,2296.825,Shape2B.png,1,fip.mp3,Shape2B.jpg,2
94,1918630,38,17,1852.645,Shape9B.png,1,sut.mp3,Shape9B.jpg,2
94,1918630,40,18,3274.945,Shape5B.png,1,gex.mp3,Shape5B.jpg,2
94,1918630,45,19,2581.08,Shape4B.png,1,fum.mp3,Shape4B.jpg,2
94,1918630,44,20,2833.565,Shape1B.png,1,bix.mp3,Shape1B.jpg,2
94,1918630,46,21,1813.205,Shape2B.png,1,fip.mp3,Shape2B.jpg,2
94,1918630,51,22,2267.95,Shape12B.png,1,pof.mp3,Shape12B.jpg,2
94,1918630,50,23,2066.985,Shape4B.png,1,fum.mp3,Shape4B.jpg,2
94,1918630,49,24,1371.94,Shape6B.png,1,gop.mp3,Shape6B.jpg,2
94,1918630,56,25,2699.805,Shape6B.png,1,gop.mp3,Shape6B.jpg,3
94,1918630,54,26,2020.455,Shape1B.png,1,bix.mp3,Shape1B.jpg,3
94,1918630,55,27,1786.14,Shape1B.png,0,gop.mp3,Shape6B.jpg,3
94,1918630,62,28,1766.43,Shape10B.png,1,dod.mp3,Shape10B.jpg,3
94,1918630,60,29,2599.79,Shape4B.png,1,fum.mp3,Shape4B.jpg,3
94,1918630,61,30,1264.11,Shape10B.png,1,dod.mp3,Shape10B.jpg,3
94,1918630,67,31,1844.75,Shape12B.png,1,pof.mp3,Shape12B.jpg,3
94,1918630,65,32,1562.345,Shape3B.png,1,beb.mp3,Shape3B.jpg,3
94,1918630,66,33,3199.56,Shape9B.png,1,sut.mp3,Shape9B.jpg,3
94,1918630,71,34,2116.585,Shape1B.png,1,bix.mp3,Shape1B.jpg,3
94,1918630,70,35,2265.525,Shape7B.png,1,saf.mp3,Shape7B.jpg,3
94,1918630,72,36,1064.42,Shape5B.png,1,gex.mp3,Shape5B.jpg,3
107,1922105,13,1,4636.87,Shape8B.png,1,dep.mp3,Shape8B.jpg,1
107,1922105,14,3,3030.825,Shape2B.png,1,fip.mp3,Shape2B.jpg,1
107,1922105,18,4,3478.97,Shape10B.png,1,dod.mp3,Shape10B.jpg,1
107,1922105,17,5,3002.885,Shape3B.png,1,beb.mp3,Shape3B.jpg,1
107,1922105,19,6,3744.18,Shape7B.png,1,saf.mp3,Shape7B.jpg,1
107,1922105,22,7,4167.67,Shape9B.png,1,sut.mp3,Shape9B.jpg,1
107,1922105,23,8,3467.53,Shape8B.png,1,dep.mp3,Shape8B.jpg,1
107,1922105,24,9,4226.475,Shape11B.png,1,pag.mp3,Shape11B.jpg,1
107,1922105,29,10,3778.44,Shape11B.png,1,pag.mp3,Shape11B.jpg,1
107,1922105,28,11,4561.225,Shape12B.png,1,pof.mp3,Shape12B.jpg,1
107,1922105,30,12,4091.645,Shape8B.png,1,dep.mp3,Shape8B.jpg,1
107,1922105,33,14,4000.315,Shape12B.png,0,pag.mp3,Shape11B.jpg,2
107,1922105,35,15,3804.095,Shape12B.png,0,beb.mp3,Shape3B.jpg,2
107,1922105,38,16,3570.31,Shape9B.png,1,sut.mp3,Shape9B.jpg,2
107,1922105,39,17,3979.545,Shape2B.png,1,fip.mp3,Shape2B.jpg,2
107,1922105,40,18,4127.04,Shape5B.png,1,gex.mp3,Shape5B.jpg,2
107,1922105,45,19,3323.43,Shape4B.png,1,fum.mp3,Shape4B.jpg,2
107,1922105,44,21,3519.71,Shape1B.png,1,bix.mp3,Shape1B.jpg,2
107,1922105,49,22,3856.705,Shape6B.png,1,gop.mp3,Shape6B.jpg,2
107,1922105,50,23,3230.3,Shape4B.png,1,fum.mp3,Shape4B.jpg,2
107,1922105,51,24,3447.25,Shape12B.png,1,pof.mp3,Shape12B.jpg,2
107,1922105,56,25,4316.16,Shape6B.png,1,gop.mp3,Shape6B.jpg,3
107,1922105,55,26,3285.595,Shape6B.png,1,gop.mp3,Shape6B.jpg,3
107,1922105,54,27,3164.385,Shape1B.png,1,bix.mp3,Shape1B.jpg,3
107,1922105,60,28,4133.755,Shape4B.png,1,fum.mp3,Shape4B.jpg,3
107,1922105,61,30,3328.995,Shape10B.png,1,dod.mp3,Shape10B.jpg,3
107,1922105,66,31,4525.775,Shape9B.png,1,sut.mp3,Shape9B.jpg,3
107,1922105,65,32,3519.31,Shape3B.png,1,beb.mp3,Shape3B.jpg,3
107,1922105,67,33,3398.365,Shape12B.png,1,pof.mp3,Shape12B.jpg,3
107,1922105,72,35,4731.58,Shape5B.png,1,gex.mp3,Shape5B.jpg,3
107,1922105,71,36,3250.125,Shape1B.png,1,bix.mp3,Shape1B.jpg,3
100,1913012,14,1,1153,Shape7B.png,1,saf.mp3,Shape7B.jpg,1
100,1913012,13,2,1642,Shape10B.png,1,dod.mp3,Shape10B.jpg,1
100,1913012,12,3,1319,Shape3B.png,1,beb.mp3,Shape3B.jpg,1
100,1913012,18,4,1779,Shape11B.png,1,pag.mp3,Shape11B.jpg,1
100,1913012,19,5,1396,Shape8B.png,1,dep.mp3,Shape8B.jpg,1
100,1913012,17,6,1764,Shape12B.png,1,pof.mp3,Shape12B.jpg,1
100,1913012,22,7,1798,Shape8B.png,0,sut.mp3,Shape9B.jpg,1
100,1913012,23,8,1079,Shape2B.png,1,fip.mp3,Shape2B.jpg,1
100,1913012,24,9,1062,Shape5B.png,1,gex.mp3,Shape5B.jpg,1
100,1913012,28,10,2951,Shape7B.png,1,saf.mp3,Shape7B.jpg,1
100,1913012,30,11,1177,Shape5B.png,1,gex.mp3,Shape5B.jpg,1
100,1913012,29,12,1326,Shape1B.png,1,bix.mp3,Shape1B.jpg,1
100,1913012,33,13,1767,Shape1B.png,1,bix.mp3,Shape1B.jpg,2
100,1913012,35,14,1469,Shape6B.png,1,gop.mp3,Shape6B.jpg,2
100,1913012,34,15,2035,Shape6B.png,1,gop.mp3,Shape6B.jpg,2
100,1913012,39,16,3939,Shape4B.png,1,fum.mp3,Shape4B.jpg,2
100,1913012,38,17,1884,Shape1B.png,1,bix.mp3,Shape1B.jpg,2
100,1913012,40,18,1648,Shape2B.png,1,fip.mp3,Shape2B.jpg,2
100,1913012,46,20,1662,Shape12B.png,1,pof.mp3,Shape12B.jpg,2
100,1913012,44,21,986,Shape3B.png,1,beb.mp3,Shape3B.jpg,2
100,1913012,50,22,1535,Shape9B.png,0,fum.mp3,Shape4B.jpg,2
100,1913012,49,23,2026,Shape6B.png,1,gop.mp3,Shape6B.jpg,2
100,1913012,51,24,1357,Shape1B.png,0,pof.mp3,Shape12B.jpg,2
100,1913012,56,25,1802,Shape10B.png,1,dod.mp3,Shape10B.jpg,3
100,1913012,55,26,4191,Shape10B.png,1,dod.mp3,Shape10B.jpg,3
100,1913012,54,27,1182,Shape4B.png,1,fum.mp3,Shape4B.jpg,3
100,1913012,61,28,2981,Shape7B.png,1,saf.mp3,Shape7B.jpg,3
100,1913012,62,29,1401,Shape3B.png,1,beb.mp3,Shape3B.jpg,3
100,1913012,60,30,1933,Shape11B.png,1,pag.mp3,Shape11B.jpg,3
100,1913012,65,31,1838,Shape9B.png,1,sut.mp3,Shape9B.jpg,3
100,1913012,67,32,2509,Shape11B.png,1,pag.mp3,Shape11B.jpg,3
100,1913012,66,33,3268,Shape8B.png,1,dep.mp3,Shape8B.jpg,3
100,1913012,71,34,3083,Shape8B.png,1,dep.mp3,Shape8B.jpg,3
100,1913012,70,35,1134,Shape5B.png,1,gex.mp3,Shape5B.jpg,3
100,1913012,72,36,2048,Shape2B.png,1,fip.mp3,Shape2B.jpg,3
115,1928249,12,1,1950.64,Shape3B.png,1,beb.mp3,Shape3B.jpg,1
115,1928249,13,2,1774.28,Shape10B.png,1,dod.mp3,Shape10B.jpg,1
115,1928249,14,3,3065.575,Shape7B.png,1,saf.mp3,Shape7B.jpg,1
115,1928249,17,4,3618.28,Shape12B.png,1,pof.mp3,Shape12B.jpg,1
115,1928249,18,5,1868.095,Shape11B.png,1,pag.mp3,Shape11B.jpg,1
115,1928249,19,6,2402.385,Shape8B.png,1,dep.mp3,Shape8B.jpg,1
115,1928249,22,7,1624.455,Shape9B.png,1,sut.mp3,Shape9B.jpg,1
115,1928249,23,8,2063.245,Shape2B.png,1,fip.mp3,Shape2B.jpg,1
115,1928249,24,9,1873.635,Shape5B.png,1,gex.mp3,Shape5B.jpg,1
115,1928249,29,10,1839.45,Shape1B.png,1,bix.mp3,Shape1B.jpg,1
115,1928249,28,12,1499.915,Shape7B.png,1,saf.mp3,Shape7B.jpg,1
115,1928249,35,13,1998.445,Shape6B.png,1,gop.mp3,Shape6B.jpg,2
115,1928249,34,14,2313.9,Shape6B.png,1,gop.mp3,Shape6B.jpg,2
115,1928249,33,15,2166.135,Shape1B.png,1,bix.mp3,Shape1B.jpg,2
115,1928249,38,16,1726.215,Shape1B.png,1,bix.mp3,Shape1B.jpg,2
115,1928249,39,17,1734,Shape4B.png,1,fum.mp3,Shape4B.jpg,2
115,1928249,40,18,1805.99,Shape2B.png,1,fip.mp3,Shape2B.jpg,2
115,1928249,45,19,1635.065,Shape9B.png,1,sut.mp3,Shape9B.jpg,2
115,1928249,44,20,1510.3,Shape3B.png,1,beb.mp3,Shape3B.jpg,2
115,1928249,46,21,1622.655,Shape12B.png,1,pof.mp3,Shape12B.jpg,2
115,1928249,51,22,1853.925,Shape12B.png,1,pof.mp3,Shape12B.jpg,2
115,1928249,50,23,1387.015,Shape4B.png,1,fum.mp3,Shape4B.jpg,2
115,1928249,49,24,1773.075,Shape6B.png,1,gop.mp3,Shape6B.jpg,2
115,1928249,55,25,1612.345,Shape10B.png,1,dod.mp3,Shape10B.jpg,3
115,1928249,56,26,1574.07,Shape10B.png,1,dod.mp3,Shape10B.jpg,3
115,1928249,54,27,1514.425,Shape4B.png,1,fum.mp3,Shape4B.jpg,3
115,1928249,60,29,2348.94,Shape11B.png,1,pag.mp3,Shape11B.jpg,3
115,1928249,61,30,1508.24,Shape7B.png,1,saf.mp3,Shape7B.jpg,3
115,1928249,67,31,1615.06,Shape11B.png,1,pag.mp3,Shape11B.jpg,3
115,1928249,65,32,1519.67,Shape9B.png,1,sut.mp3,Shape9B.jpg,3
115,1928249,66,33,1393.67,Shape8B.png,1,dep.mp3,Shape8B.jpg,3
115,1928249,72,34,1750.88,Shape2B.png,1,fip.mp3,Shape2B.jpg,3
115,1928249,71,35,1573.345,Shape8B.png,1,dep.mp3,Shape8B.jpg,3
115,1928249,70,36,1205.79,Shape5B.png,1,gex.mp3,Shape5B.jpg,3
152,1944597,14,1,2713.19,Shape2B.png,1,fip.mp3,Shape2B.jpg,1
152,1944597,13,2,2265.52,Shape4B.png,1,fum.mp3,Shape4B.jpg,1
152,1944597,12,3,1651.71,Shape1B.png,1,bix.mp3,Shape1B.jpg,1
152,1944597,18,4,1698.24,Shape11B.png,1,pag.mp3,Shape11B.jpg,1
152,1944597,19,5,1496.23,Shape8B.png,1,dep.mp3,Shape8B.jpg,1
152,1944597,17,6,1831.435,Shape12B.png,1,pof.mp3,Shape12B.jpg,1
152,1944597,23,7,1786.355,Shape8B.png,1,dep.mp3,Shape8B.jpg,1
152,1944597,22,8,1835.065,Shape5B.png,1,gex.mp3,Shape5B.jpg,1
152,1944597,24,9,1469.51,Shape2B.png,1,fip.mp3,Shape2B.jpg,1
152,1944597,30,10,2108.03,Shape7B.png,1,saf.mp3,Shape7B.jpg,1
152,1944597,28,11,1630.645,Shape3B.png,1,beb.mp3,Shape3B.jpg,1
152,1944597,29,12,1931.475,Shape10B.png,1,dod.mp3,Shape10B.jpg,1
152,1944597,33,13,1770.73,Shape4B.png,1,fum.mp3,Shape4B.jpg,2
152,1944597,35,14,1865.655,Shape10B.png,1,dod.mp3,Shape10B.jpg,2
152,1944597,34,15,1295.5,Shape10B.png,1,dod.mp3,Shape10B.jpg,2
152,1944597,39,16,2095.545,Shape1B.png,1,bix.mp3,Shape1B.jpg,2
152,1944597,38,17,1338.96,Shape7B.png,1,saf.mp3,Shape7B.jpg,2
152,1944597,40,18,1854.165,Shape5B.png,1,gex.mp3,Shape5B.jpg,2
152,1944597,45,19,1274.645,Shape9B.png,1,sut.mp3,Shape9B.jpg,2
152,1944597,44,20,1378.03,Shape3B.png,1,beb.mp3,Shape3B.jpg,2
152,1944597,46,21,2329.3,Shape12B.png,1,pof.mp3,Shape12B.jpg,2
152,1944597,49,22,1162.495,Shape9B.png,1,sut.mp3,Shape9B.jpg,2
152,1944597,50,23,1720.31,Shape8B.png,1,dep.mp3,Shape8B.jpg,2
152,1944597,51,24,2106.18,Shape11B.png,1,pag.mp3,Shape11B.jpg,2
152,1944597,55,25,2447.38,Shape2B.png,1,fip.mp3,Shape2B.jpg,3
152,1944597,56,26,1473.835,Shape5B.png,1,gex.mp3,Shape5B.jpg,3
152,1944597,54,27,2903.93,Shape9B.png,1,sut.mp3,Shape9B.jpg,3
152,1944597,62,28,2426.91,Shape12B.png,1,pof.mp3,Shape12B.jpg,3
152,1944597,61,29,2191.37,Shape4B.png,1,fum.mp3,Shape4B.jpg,3
152,1944597,60,30,1397.68,Shape6B.png,1,gop.mp3,Shape6B.jpg,3
152,1944597,67,31,2189.325,Shape6B.png,1,gop.mp3,Shape6B.jpg,3
152,1944597,65,32,1327.365,Shape1B.png,1,bix.mp3,Shape1B.jpg,3
152,1944597,66,33,2890.025,Shape6B.png,1,gop.mp3,Shape6B.jpg,3
152,1944597,72,34,2663.025,Shape3B.png,1,beb.mp3,Shape3B.jpg,3
152,1944597,71,35,1828.45,Shape6B.png,0,saf.mp3,Shape7B.jpg,3
152,1944597,70,36,4140.12,Shape11B.png,1,pag.mp3,Shape11B.jpg,3
186,1950614,13,1,2084,Shape3B.png,0,fum.mp3,Shape4B.jpg,1
186,1950614,14,2,2044,Shape2B.png,1,fip.mp3,Shape2B.jpg,1
186,1950614,12,3,4525,Shape1B.png,1,bix.mp3,Shape1B.jpg,1
186,1950614,18,4,3135,Shape11B.png,1,pag.mp3,Shape11B.jpg,1
186,1950614,17,5,2569,Shape12B.png,1,pof.mp3,Shape12B.jpg,1
186,1950614,19,6,2535,Shape8B.png,1,dep.mp3,Shape8B.jpg,1
186,1950614,22,7,2589,Shape6B.png,0,gex.mp3,Shape5B.jpg,1
186,1950614,24,8,3113,Shape2B.png,1,fip.mp3,Shape2B.jpg,1
186,1950614,23,9,2325,Shape8B.png,1,dep.mp3,Shape8B.jpg,1
186,1950614,30,10,2857,Shape7B.png,1,saf.mp3,Shape7B.jpg,1
186,1950614,28,12,2195,Shape3B.png,1,beb.mp3,Shape3B.jpg,1
186,1950614,39,16,2310,Shape9B.png,0,bix.mp3,Shape1B.jpg,2
186,1950614,40,17,2559,Shape5B.png,1,gex.mp3,Shape5B.jpg,2
186,1950614,38,18,2044,Shape7B.png,1,saf.mp3,Shape7B.jpg,2
186,1950614,44,19,2173,Shape3B.png,1,beb.mp3,Shape3B.jpg,2
186,1950614,46,20,4798,Shape12B.png,1,pof.mp3,Shape12B.jpg,2
186,1950614,45,21,1812,Shape9B.png,1,sut.mp3,Shape9B.jpg,2
186,1950614,49,22,2931,Shape9B.png,1,sut.mp3,Shape9B.jpg,2
186,1950614,51,23,1870,Shape11B.png,1,pag.mp3,Shape11B.jpg,2
186,1950614,56,25,2492,Shape5B.png,1,gex.mp3,Shape5B.jpg,3
186,1950614,55,26,2719,Shape2B.png,1,fip.mp3,Shape2B.jpg,3
186,1950614,54,27,2984,Shape9B.png,1,sut.mp3,Shape9B.jpg,3
186,1950614,61,28,3168,Shape9B.png,0,fum.mp3,Shape4B.jpg,3
186,1950614,62,29,4369,Shape12B.png,1,pof.mp3,Shape12B.jpg,3
186,1950614,60,30,3482,Shape6B.png,1,gop.mp3,Shape6B.jpg,3
186,1950614,66,31,2246,Shape6B.png,1,gop.mp3,Shape6B.jpg,3
186,1950614,67,32,3598,Shape6B.png,1,gop.mp3,Shape6B.jpg,3
186,1950614,65,33,1821,Shape1B.png,1,bix.mp3,Shape1B.jpg,3
186,1950614,70,34,4754,Shape11B.png,1,pag.mp3,Shape11B.jpg,3
186,1950614,72,35,2535,Shape12B.png,0,beb.mp3,Shape3B.jpg,3
186,1950614,71,36,3015,Shape7B.png,1,saf.mp3,Shape7B.jpg,3
139,1948335,13,1,2596.4,Shape10B.png,1,dod.mp3,Shape10B.jpg,1
139,1948335,14,2,3746.1,Shape7B.png,1,saf.mp3,Shape7B.jpg,1
139,1948335,12,3,2811.1,Shape3B.png,1,beb.mp3,Shape3B.jpg,1
139,1948335,18,4,3321.6,Shape11B.png,1,pag.mp3,Shape11B.jpg,1
139,1948335,19,5,3453.7,Shape8B.png,1,dep.mp3,Shape8B.jpg,1
139,1948335,17,6,2461.7,Shape12B.png,1,pof.mp3,Shape12B.jpg,1
139,1948335,24,8,3401.3,Shape5B.png,1,gex.mp3,Shape5B.jpg,1
139,1948335,22,9,3590.1,Shape9B.png,1,sut.mp3,Shape9B.jpg,1
139,1948335,28,10,3643.9,Shape7B.png,1,saf.mp3,Shape7B.jpg,1
139,1948335,30,12,2513.7,Shape5B.png,1,gex.mp3,Shape5B.jpg,1
139,1948335,35,13,3056.4,Shape6B.png,1,gop.mp3,Shape6B.jpg,2
139,1948335,33,14,2006.8,Shape1B.png,1,bix.mp3,Shape1B.jpg,2
139,1948335,34,15,2259.2,Shape6B.png,1,gop.mp3,Shape6B.jpg,2
139,1948335,38,16,3680.9,Shape1B.png,1,bix.mp3,Shape1B.jpg,2
139,1948335,40,17,3441.6,Shape5B.png,0,fip.mp3,Shape2B.jpg,2
139,1948335,39,18,2039.9,Shape4B.png,1,fum.mp3,Shape4B.jpg,2
139,1948335,45,19,3483.3,Shape9B.png,1,sut.mp3,Shape9B.jpg,2
139,1948335,46,20,2353.2,Shape12B.png,1,pof.mp3,Shape12B.jpg,2
139,1948335,44,21,2104.8,Shape3B.png,1,beb.mp3,Shape3B.jpg,2
139,1948335,49,22,2618.4,Shape6B.png,1,gop.mp3,Shape6B.jpg,2
139,1948335,51,23,2301.1,Shape12B.png,1,pof.mp3,Shape12B.jpg,2
139,1948335,50,24,2353.4,Shape4B.png,1,fum.mp3,Shape4B.jpg,2
139,1948335,54,25,2327.8,Shape4B.png,1,fum.mp3,Shape4B.jpg,3
139,1948335,55,26,2057,Shape10B.png,1,dod.mp3,Shape10B.jpg,3
139,1948335,56,27,2504,Shape10B.png,1,dod.mp3,Shape10B.jpg,3
139,1948335,62,28,2407.6,Shape3B.png,1,beb.mp3,Shape3B.jpg,3
139,1948335,61,29,2024.9,Shape7B.png,1,saf.mp3,Shape7B.jpg,3
139,1948335,60,30,1738.3,Shape11B.png,1,pag.mp3,Shape11B.jpg,3
139,1948335,65,31,2638.4,Shape9B.png,1,sut.mp3,Shape9B.jpg,3
139,1948335,66,32,2588.2,Shape8B.png,1,dep.mp3,Shape8B.jpg,3
139,1948335,67,33,1566,Shape11B.png,1,pag.mp3,Shape11B.jpg,3
139,1948335,72,34,2708.3,Shape2B.png,1,fip.mp3,Shape2B.jpg,3
139,1948335,71,35,2040.3,Shape8B.png,1,dep.mp3,Shape8B.jpg,3
139,1948335,70,36,2011.1,Shape5B.png,1,gex.mp3,Shape5B.jpg,3
59,1943563,13,1,2041,Shape5B.png,0,dep.mp3,Shape8B.jpg,1
59,1943563,14,2,2225,Shape2B.png,1,fip.mp3,Shape2B.jpg,1
59,1943563,12,3,4228,Shape5B.png,1,gex.mp3,Shape5B.jpg,1
59,1943563,19,4,3020,Shape7B.png,1,saf.mp3,Shape7B.jpg,1
59,1943563,18,5,2935,Shape11B.png,0,dod.mp3,Shape10B.jpg,1
59,1943563,17,6,2070,Shape3B.png,1,beb.mp3,Shape3B.jpg,1
59,1943563,22,7,2501,Shape9B.png,1,sut.mp3,Shape9B.jpg,1
59,1943563,24,8,3651,Shape11B.png,1,pag.mp3,Shape11B.jpg,1
59,1943563,23,9,1811,Shape8B.png,1,dep.mp3,Shape8B.jpg,1
59,1943563,28,11,2083,Shape12B.png,1,pof.mp3,Shape12B.jpg,1
59,1943563,33,13,2743,Shape11B.png,1,pag.mp3,Shape11B.jpg,2
59,1943563,34,14,2406,Shape7B.png,1,saf.mp3,Shape7B.jpg,2
59,1943563,35,15,2846,Shape3B.png,1,beb.mp3,Shape3B.jpg,2
59,1943563,38,16,3782,Shape9B.png,1,sut.mp3,Shape9B.jpg,2
59,1943563,40,17,2301,Shape5B.png,1,gex.mp3,Shape5B.jpg,2
59,1943563,39,18,1791,Shape2B.png,1,fip.mp3,Shape2B.jpg,2
59,1943563,46,19,2067,Shape2B.png,1,fip.mp3,Shape2B.jpg,2
59,1943563,44,20,3302,Shape1B.png,1,bix.mp3,Shape1B.jpg,2
59,1943563,45,21,4923,Shape3B.png,0,fum.mp3,Shape4B.jpg,2
59,1943563,51,22,1471,Shape12B.png,1,pof.mp3,Shape12B.jpg,2
59,1943563,50,23,4224,Shape4B.png,1,fum.mp3,Shape4B.jpg,2
59,1943563,49,24,2219,Shape6B.png,1,gop.mp3,Shape6B.jpg,2
59,1943563,55,25,1927,Shape6B.png,1,gop.mp3,Shape6B.jpg,3
59,1943563,54,26,1782,Shape1B.png,1,bix.mp3,Shape1B.jpg,3
59,1943563,56,27,4534,Shape2B.png,0,gop.mp3,Shape6B.jpg,3
59,1943563,60,28,2766,Shape4B.png,1,fum.mp3,Shape4B.jpg,3
59,1943563,61,29,1839,Shape10B.png,1,dod.mp3,Shape10B.jpg,3
59,1943563,62,30,1997,Shape10B.png,1,dod.mp3,Shape10B.jpg,3
59,1943563,65,32,4630,Shape3B.png,1,beb.mp3,Shape3B.jpg,3
59,1943563,67,33,2099,Shape12B.png,1,pof.mp3,Shape12B.jpg,3
59,1943563,72,34,3344,Shape5B.png,1,gex.mp3,Shape5B.jpg,3
59,1943563,70,36,2045,Shape7B.png,1,saf.mp3,Shape7B.jpg,3
77,1956982,13,1,2688.64,Shape5B.png,0,dep.mp3,Shape8B.jpg,1
77,1956982,14,2,2380.575,Shape9B.png,0,fip.mp3,Shape2B.jpg,1
77,1956982,12,3,1864.24,Shape5B.png,1,gex.mp3,Shape5B.jpg,1
77,1956982,17,4,1860.725,Shape3B.png,1,beb.mp3,Shape3B.jpg,1
77,1956982,19,5,1102.695,Shape7B.png,1,saf.mp3,Shape7B.jpg,1
77,1956982,18,6,3702.995,Shape11B.png,0,dod.mp3,Shape10B.jpg,1
77,1956982,24,7,2784.915,Shape2B.png,0,pag.mp3,Shape11B.jpg,1
77,1956982,22,8,2323.49,Shape10B.png,0,sut.mp3,Shape9B.jpg,1
77,1956982,23,9,2079.345,Shape8B.png,1,dep.mp3,Shape8B.jpg,1
77,1956982,29,10,1829.62,Shape11B.png,1,pag.mp3,Shape11B.jpg,1
77,1956982,30,11,4376.565,Shape8B.png,1,dep.mp3,Shape8B.jpg,1
77,1956982,28,12,1693.27,Shape12B.png,1,pof.mp3,Shape12B.jpg,1
77,1956982,34,13,1651.16,Shape7B.png,1,saf.mp3,Shape7B.jpg,2
77,1956982,35,14,1466.46,Shape3B.png,1,beb.mp3,Shape3B.jpg,2
77,1956982,33,15,1659.71,Shape11B.png,1,pag.mp3,Shape11B.jpg,2
77,1956982,39,16,1675.95,Shape2B.png,1,fip.mp3,Shape2B.jpg,2
77,1956982,40,17,1863.425,Shape5B.png,1,gex.mp3,Shape5B.jpg,2
77,1956982,38,18,3477.55,Shape9B.png,1,sut.mp3,Shape9B.jpg,2
77,1956982,45,19,2208.05,Shape4B.png,1,fum.mp3,Shape4B.jpg,2
77,1956982,44,20,1708.5,Shape1B.png,1,bix.mp3,Shape1B.jpg,2
77,1956982,46,21,1881.71,Shape2B.png,1,fip.mp3,Shape2B.jpg,2
77,1956982,51,22,1859.26,Shape12B.png,1,pof.mp3,Shape12B.jpg,2
77,1956982,49,23,1760.505,Shape6B.png,1,gop.mp3,Shape6B.jpg,2
77,1956982,50,24,1778.175,Shape4B.png,1,fum.mp3,Shape4B.jpg,2
77,1956982,54,25,1872.87,Shape1B.png,1,bix.mp3,Shape1B.jpg,3
77,1956982,55,26,1624.685,Shape6B.png,1,gop.mp3,Shape6B.jpg,3
77,1956982,56,27,1836.45,Shape6B.png,1,gop.mp3,Shape6B.jpg,3
77,1956982,60,28,1364.04,Shape4B.png,1,fum.mp3,Shape4B.jpg,3
77,1956982,61,29,1685.53,Shape10B.png,1,dod.mp3,Shape10B.jpg,3
77,1956982,62,30,1713.83,Shape10B.png,1,dod.mp3,Shape10B.jpg,3
77,1956982,66,31,1947.39,Shape9B.png,1,sut.mp3,Shape9B.jpg,3
77,1956982,67,32,2640.635,Shape12B.png,1,pof.mp3,Shape12B.jpg,3
77,1956982,65,33,1550.7,Shape3B.png,1,beb.mp3,Shape3B.jpg,3
77,1956982,72,34,1224.555,Shape5B.png,1,gex.mp3,Shape5B.jpg,3
77,1956982,71,35,1425.605,Shape1B.png,1,bix.mp3,Shape1B.jpg,3
77,1956982,70,36,1741.745,Shape7B.png,1,saf.mp3,Shape7B.jpg,3
209,2030149,12,1,2148,Shape10B.png,0,bix.mp3,Shape1B.jpg,1
209,2030149,13,2,1397,Shape4B.png,1,fum.mp3,Shape4B.jpg,1
209,2030149,18,4,4928,Shape11B.png,1,pag.mp3,Shape11B.jpg,1
209,2030149,19,5,1495,Shape3B.png,0,dep.mp3,Shape8B.jpg,1
209,2030149,17,6,1540,Shape12B.png,1,pof.mp3,Shape12B.jpg,1
209,2030149,24,7,3186,Shape2B.png,1,fip.mp3,Shape2B.jpg,1
209,2030149,23,8,1804,Shape8B.png,1,dep.mp3,Shape8B.jpg,1
209,2030149,22,9,2839,Shape5B.png,1,gex.mp3,Shape5B.jpg,1
209,2030149,29,10,2030,Shape10B.png,1,dod.mp3,Shape10B.jpg,1
209,2030149,28,11,2540,Shape3B.png,1,beb.mp3,Shape3B.jpg,1
209,2030149,30,12,1321,Shape7B.png,1,saf.mp3,Shape7B.jpg,1
209,2030149,34,13,1792,Shape10B.png,1,dod.mp3,Shape10B.jpg,2
209,2030149,33,14,1622,Shape4B.png,1,fum.mp3,Shape4B.jpg,2
209,2030149,35,15,1704,Shape10B.png,1,dod.mp3,Shape10B.jpg,2
209,2030149,40,16,1648,Shape5B.png,1,gex.mp3,Shape5B.jpg,2
209,2030149,38,17,2219,Shape7B.png,1,saf.mp3,Shape7B.jpg,2
209,2030149,39,18,1569,Shape1B.png,1,bix.mp3,Shape1B.jpg,2
209,2030149,44,19,2551,Shape3B.png,1,beb.mp3,Shape3B.jpg,2
209,2030149,45,20,1444,Shape9B.png,1,sut.mp3,Shape9B.jpg,2
209,2030149,46,21,1574,Shape12B.png,1,pof.mp3,Shape12B.jpg,2
209,2030149,51,22,2201,Shape11B.png,1,pag.mp3,Shape11B.jpg,2
209,2030149,50,23,1442,Shape8B.png,1,dep.mp3,Shape8B.jpg,2
209,2030149,49,24,1388,Shape9B.png,1,sut.mp3,Shape9B.jpg,2
209,2030149,56,25,1759,Shape5B.png,1,gex.mp3,Shape5B.jpg,3
209,2030149,55,26,1387,Shape2B.png,1,fip.mp3,Shape2B.jpg,3
209,2030149,54,27,1500,Shape9B.png,1,sut.mp3,Shape9B.jpg,3
209,2030149,61,28,1660,Shape4B.png,1,fum.mp3,Shape4B.jpg,3
209,2030149,60,29,2270,Shape6B.png,1,gop.mp3,Shape6B.jpg,3
209,2030149,62,30,1218,Shape12B.png,1,pof.mp3,Shape12B.jpg,3
209,2030149,65,31,1910,Shape1B.png,1,bix.mp3,Shape1B.jpg,3
209,2030149,67,32,1425,Shape6B.png,1,gop.mp3,Shape6B.jpg,3
209,2030149,66,33,2462,Shape6B.png,1,gop.mp3,Shape6B.jpg,3
209,2030149,71,34,1978,Shape7B.png,1,saf.mp3,Shape7B.jpg,3
209,2030149,72,35,4409,Shape3B.png,1,beb.mp3,Shape3B.jpg,3
209,2030149,70,36,1346,Shape11B.png,1,pag.mp3,Shape11B.jpg,3
99,2008763,14,1,1199,Shape2B.png,1,fip.mp3,Shape2B.jpg,1
99,2008763,12,2,1504,Shape1B.png,1,bix.mp3,Shape1B.jpg,1
99,2008763,13,3,1296,Shape4B.png,1,fum.mp3,Shape4B.jpg,1
99,2008763,19,4,1512,Shape8B.png,1,dep.mp3,Shape8B.jpg,1
99,2008763,18,5,2368,Shape11B.png,1,pag.mp3,Shape11B.jpg,1
99,2008763,17,6,1691,Shape12B.png,1,pof.mp3,Shape12B.jpg,1
99,2008763,22,7,1502,Shape5B.png,1,gex.mp3,Shape5B.jpg,1
99,2008763,23,8,1979,Shape5B.png,0,dep.mp3,Shape8B.jpg,1
99,2008763,24,9,1768,Shape2B.png,1,fip.mp3,Shape2B.jpg,1
99,2008763,28,10,1625,Shape3B.png,1,beb.mp3,Shape3B.jpg,1
99,2008763,29,11,1036,Shape10B.png,1,dod.mp3,Shape10B.jpg,1
99,2008763,30,12,2018,Shape7B.png,1,saf.mp3,Shape7B.jpg,1
99,2008763,35,13,1448,Shape10B.png,1,dod.mp3,Shape10B.jpg,2
99,2008763,34,14,2690,Shape10B.png,1,dod.mp3,Shape10B.jpg,2
99,2008763,33,15,1182,Shape4B.png,1,fum.mp3,Shape4B.jpg,2
99,2008763,40,16,1486,Shape5B.png,1,gex.mp3,Shape5B.jpg,2
99,2008763,39,17,2241,Shape1B.png,1,bix.mp3,Shape1B.jpg,2
99,2008763,38,18,1396,Shape7B.png,1,saf.mp3,Shape7B.jpg,2
99,2008763,45,19,1783,Shape9B.png,1,sut.mp3,Shape9B.jpg,2
99,2008763,46,20,1574,Shape12B.png,1,pof.mp3,Shape12B.jpg,2
99,2008763,44,21,1968,Shape7B.png,0,beb.mp3,Shape3B.jpg,2
99,2008763,51,22,1794,Shape11B.png,1,pag.mp3,Shape11B.jpg,2
99,2008763,50,23,1615,Shape8B.png,1,dep.mp3,Shape8B.jpg,2
99,2008763,49,24,1766,Shape9B.png,1,sut.mp3,Shape9B.jpg,2
99,2008763,54,25,2092,Shape9B.png,1,sut.mp3,Shape9B.jpg,3
99,2008763,56,26,1653,Shape5B.png,1,gex.mp3,Shape5B.jpg,3
99,2008763,55,27,3686,Shape2B.png,1,fip.mp3,Shape2B.jpg,3
99,2008763,60,28,2036,Shape6B.png,1,gop.mp3,Shape6B.jpg,3
99,2008763,61,29,1699,Shape4B.png,1,fum.mp3,Shape4B.jpg,3
99,2008763,62,30,2066,Shape12B.png,1,pof.mp3,Shape12B.jpg,3
99,2008763,66,31,2500,Shape6B.png,1,gop.mp3,Shape6B.jpg,3
99,2008763,67,32,1920,Shape6B.png,1,gop.mp3,Shape6B.jpg,3
99,2008763,65,33,4544,Shape1B.png,1,bix.mp3,Shape1B.jpg,3
99,2008763,70,34,1931,Shape11B.png,1,pag.mp3,Shape11B.jpg,3
99,2008763,72,35,1941,Shape3B.png,1,beb.mp3,Shape3B.jpg,3
99,2008763,71,36,1720,Shape7B.png,1,saf.mp3,Shape7B.jpg,3
158,1985523,13,1,1376.05,Shape3B.png,0,fum.mp3,Shape4B.jpg,1
158,1985523,12,2,2733.75,Shape1B.png,1,bix.mp3,Shape1B.jpg,1
158,1985523,14,3,2098.41,Shape5B.png,0,fip.mp3,Shape2B.jpg,1
158,1985523,18,4,2344.895,Shape11B.png,1,pag.mp3,Shape11B.jpg,1
158,1985523,19,5,3287.845,Shape3B.png,0,dep.mp3,Shape8B.jpg,1
158,1985523,17,6,3392.915,Shape4B.png,0,pof.mp3,Shape12B.jpg,1
158,1985523,22,8,2069.085,Shape5B.png,1,gex.mp3,Shape5B.jpg,1
158,1985523,23,9,4339.61,Shape5B.png,0,dep.mp3,Shape8B.jpg,1
158,1985523,29,10,1412,Shape11B.png,0,dod.mp3,Shape10B.jpg,1
158,1985523,28,11,1666.705,Shape3B.png,1,beb.mp3,Shape3B.jpg,1
158,1985523,30,12,2998.11,Shape7B.png,1,saf.mp3,Shape7B.jpg,1
158,1985523,34,13,2608.26,Shape10B.png,1,dod.mp3,Shape10B.jpg,2
158,1985523,35,14,2837.93,Shape10B.png,1,dod.mp3,Shape10B.jpg,2
158,1985523,33,15,2047.855,Shape4B.png,1,fum.mp3,Shape4B.jpg,2
158,1985523,38,16,1619.61,Shape7B.png,1,saf.mp3,Shape7B.jpg,2
158,1985523,40,17,2072.66,Shape5B.png,1,gex.mp3,Shape5B.jpg,2
158,1985523,39,18,1680.045,Shape1B.png,1,bix.mp3,Shape1B.jpg,2
158,1985523,45,19,2306.595,Shape9B.png,1,sut.mp3,Shape9B.jpg,2
158,1985523,44,20,2476.075,Shape3B.png,1,beb.mp3,Shape3B.jpg,2
158,1985523,46,21,3107.51,Shape12B.png,1,pof.mp3,Shape12B.jpg,2
158,1985523,50,22,2368.805,Shape8B.png,1,dep.mp3,Shape8B.jpg,2
158,1985523,51,23,1713.095,Shape2B.png,0,pag.mp3,Shape11B.jpg,2
158,1985523,49,24,1542.665,Shape10B.png,0,sut.mp3,Shape9B.jpg,2
158,1985523,54,25,2694.32,Shape8B.png,0,sut.mp3,Shape9B.jpg,3
158,1985523,56,26,1387.175,Shape4B.png,0,gex.mp3,Shape5B.jpg,3
158,1985523,55,27,2048.43,Shape2B.png,1,fip.mp3,Shape2B.jpg,3
158,1985523,61,28,2302.31,Shape4B.png,1,fum.mp3,Shape4B.jpg,3
158,1985523,62,29,3116.01,Shape12B.png,1,pof.mp3,Shape12B.jpg,3
158,1985523,60,30,1721.025,Shape6B.png,1,gop.mp3,Shape6B.jpg,3
158,1985523,67,31,1753.72,Shape2B.png,0,gop.mp3,Shape6B.jpg,3
158,1985523,65,32,1722.525,Shape1B.png,1,bix.mp3,Shape1B.jpg,3
158,1985523,66,33,1505.72,Shape6B.png,1,gop.mp3,Shape6B.jpg,3
158,1985523,72,34,1846.58,Shape3B.png,1,beb.mp3,Shape3B.jpg,3
158,1985523,71,35,1197.555,Shape6B.png,0,saf.mp3,Shape7B.jpg,3
158,1985523,70,36,1481.375,Shape11B.png,1,pag.mp3,Shape11B.jpg,3
137,1981868,13,1,3554.395,Shape4B.png,1,fum.mp3,Shape4B.jpg,1
137,1981868,14,2,3275.92,Shape2B.png,1,fip.mp3,Shape2B.jpg,1
137,1981868,12,3,1861.445,Shape1B.png,1,bix.mp3,Shape1B.jpg,1
137,1981868,18,4,3576.665,Shape11B.png,1,pag.mp3,Shape11B.jpg,1
137,1981868,17,5,2783.145,Shape12B.png,1,pof.mp3,Shape12B.jpg,1
137,1981868,19,6,2882.49,Shape8B.png,1,dep.mp3,Shape8B.jpg,1
137,1981868,23,7,2183.82,Shape8B.png,1,dep.mp3,Shape8B.jpg,1
137,1981868,24,8,3350.9,Shape2B.png,1,fip.mp3,Shape2B.jpg,1
137,1981868,22,9,2403.54,Shape5B.png,1,gex.mp3,Shape5B.jpg,1
137,1981868,29,10,2328.595,Shape10B.png,1,dod.mp3,Shape10B.jpg,1
137,1981868,30,11,1416.385,Shape7B.png,1,saf.mp3,Shape7B.jpg,1
137,1981868,28,12,2305.81,Shape3B.png,1,beb.mp3,Shape3B.jpg,1
137,1981868,34,13,4446.07,Shape6B.png,0,dod.mp3,Shape10B.jpg,2
137,1981868,35,14,1583.095,Shape10B.png,1,dod.mp3,Shape10B.jpg,2
137,1981868,33,15,1861.51,Shape4B.png,1,fum.mp3,Shape4B.jpg,2
137,1981868,38,16,3294.5,Shape7B.png,1,saf.mp3,Shape7B.jpg,2
137,1981868,39,17,1975.94,Shape1B.png,1,bix.mp3,Shape1B.jpg,2
137,1981868,40,18,2072.35,Shape5B.png,1,gex.mp3,Shape5B.jpg,2
137,1981868,45,19,3048.945,Shape9B.png,1,sut.mp3,Shape9B.jpg,2
137,1981868,46,20,2443.9,Shape12B.png,1,pof.mp3,Shape12B.jpg,2
137,1981868,44,21,1497.19,Shape3B.png,1,beb.mp3,Shape3B.jpg,2
137,1981868,50,22,2182.47,Shape8B.png,1,dep.mp3,Shape8B.jpg,2
137,1981868,49,23,1825.115,Shape9B.png,1,sut.mp3,Shape9B.jpg,2
137,1981868,51,24,2977.87,Shape11B.png,1,pag.mp3,Shape11B.jpg,2
137,1981868,56,25,1488.19,Shape5B.png,1,gex.mp3,Shape5B.jpg,3
137,1981868,54,26,2478.38,Shape9B.png,1,sut.mp3,Shape9B.jpg,3
137,1981868,55,27,2779.32,Shape2B.png,1,fip.mp3,Shape2B.jpg,3
137,1981868,60,28,1873.705,Shape6B.png,1,gop.mp3,Shape6B.jpg,3
137,1981868,62,29,1951.71,Shape12B.png,1,pof.mp3,Shape12B.jpg,3
137,1981868,61,30,2682.475,Shape4B.png,1,fum.mp3,Shape4B.jpg,3
137,1981868,67,31,4213.34,Shape6B.png,1,gop.mp3,Shape6B.jpg,3
137,1981868,65,32,2882.055,Shape1B.png,1,bix.mp3,Shape1B.jpg,3
137,1981868,66,33,1819.72,Shape6B.png,1,gop.mp3,Shape6B.jpg,3
137,1981868,72,34,1684.835,Shape3B.png,1,beb.mp3,Shape3B.jpg,3
137,1981868,70,35,2474.605,Shape11B.png,1,pag.mp3,Shape11B.jpg,3
137,1981868,71,36,1446.985,Shape7B.png,1,saf.mp3,Shape7B.jpg,3
45,2008299,12,1,3945.745,Shape10B.png,0,bix.mp3,Shape1B.jpg,1
45,2008299,13,2,4373.36,Shape4B.png,1,fum.mp3,Shape4B.jpg,1
45,2008299,14,3,3171.39,Shape2B.png,1,fip.mp3,Shape2B.jpg,1
45,2008299,17,4,2049.11,Shape12B.png,1,pof.mp3,Shape12B.jpg,1
45,2008299,18,6,3148.92,Shape11B.png,1,pag.mp3,Shape11B.jpg,1
45,2008299,24,7,4881.36,Shape2B.png,1,fip.mp3,Shape2B.jpg,1
45,2008299,23,8,2482.11,Shape8B.png,1,dep.mp3,Shape8B.jpg,1
45,2008299,22,9,1862.435,Shape5B.png,1,gex.mp3,Shape5B.jpg,1
45,2008299,29,10,2495.1,Shape10B.png,1,dod.mp3,Shape10B.jpg,1
45,2008299,30,11,1841.15,Shape7B.png,1,saf.mp3,Shape7B.jpg,1
45,2008299,28,12,2814.42,Shape3B.png,1,beb.mp3,Shape3B.jpg,1
45,2008299,33,13,2028.625,Shape4B.png,1,fum.mp3,Shape4B.jpg,2
45,2008299,35,14,2389.27,Shape10B.png,1,dod.mp3,Shape10B.jpg,2
45,2008299,34,15,3748.205,Shape6B.png,0,dod.mp3,Shape10B.jpg,2
45,2008299,38,16,3038.35,Shape7B.png,1,saf.mp3,Shape7B.jpg,2
45,2008299,40,17,4517.475,Shape5B.png,1,gex.mp3,Shape5B.jpg,2
45,2008299,39,18,2076.105,Shape1B.png,1,bix.mp3,Shape1B.jpg,2
45,2008299,44,19,1673.06,Shape3B.png,1,beb.mp3,Shape3B.jpg,2
45,2008299,46,20,3148.42,Shape12B.png,1,pof.mp3,Shape12B.jpg,2
45,2008299,45,21,2777.56,Shape9B.png,1,sut.mp3,Shape9B.jpg,2
45,2008299,49,22,3193.52,Shape9B.png,1,sut.mp3,Shape9B.jpg,2
45,2008299,51,23,2195.09,Shape11B.png,1,pag.mp3,Shape11B.jpg,2
45,2008299,50,24,4379.09,Shape8B.png,1,dep.mp3,Shape8B.jpg,2
45,2008299,54,25,4852.3,Shape9B.png,1,sut.mp3,Shape9B.jpg,3
45,2008299,56,27,3812.555,Shape5B.png,1,gex.mp3,Shape5B.jpg,3
45,2008299,61,28,2361.23,Shape4B.png,1,fum.mp3,Shape4B.jpg,3
45,2008299,62,30,2976.36,Shape12B.png,1,pof.mp3,Shape12B.jpg,3
45,2008299,67,31,2196.54,Shape6B.png,1,gop.mp3,Shape6B.jpg,3
45,2008299,65,32,2152.77,Shape1B.png,1,bix.mp3,Shape1B.jpg,3
45,2008299,66,33,3669.875,Shape6B.png,1,gop.mp3,Shape6B.jpg,3
45,2008299,72,34,2525.3,Shape3B.png,1,beb.mp3,Shape3B.jpg,3
45,2008299,71,35,2874.43,Shape7B.png,1,saf.mp3,Shape7B.jpg,3
45,2008299,70,36,1810.72,Shape11B.png,1,pag.mp3,Shape11B.jpg,3
203,1979005,14,1,2409.095,Shape5B.png,0,fip.mp3,Shape2B.jpg,1
203,1979005,13,2,1694.145,Shape4B.png,1,fum.mp3,Shape4B.jpg,1
203,1979005,12,3,2015.015,Shape10B.png,0,bix.mp3,Shape1B.jpg,1
203,1979005,17,4,2137.925,Shape12B.png,1,pof.mp3,Shape12B.jpg,1
203,1979005,19,5,3181.655,Shape8B.png,1,dep.mp3,Shape8B.jpg,1
203,1979005,18,6,3080.01,Shape11B.png,1,pag.mp3,Shape11B.jpg,1
203,1979005,24,7,2548.44,Shape9B.png,0,fip.mp3,Shape2B.jpg,1
203,1979005,23,8,1662.73,Shape8B.png,1,dep.mp3,Shape8B.jpg,1
203,1979005,22,9,1898.8,Shape6B.png,0,gex.mp3,Shape5B.jpg,1
203,1979005,28,10,1871.76,Shape11B.png,0,beb.mp3,Shape3B.jpg,1
203,1979005,30,11,2293.585,Shape7B.png,1,saf.mp3,Shape7B.jpg,1
203,1979005,29,12,4479.335,Shape10B.png,1,dod.mp3,Shape10B.jpg,1
203,1979005,34,13,4762.605,Shape6B.png,0,dod.mp3,Shape10B.jpg,2
203,1979005,35,14,2305.87,Shape10B.png,1,dod.mp3,Shape10B.jpg,2
203,1979005,33,15,3382.825,Shape1B.png,0,fum.mp3,Shape4B.jpg,2
203,1979005,38,16,2304.975,Shape7B.png,1,saf.mp3,Shape7B.jpg,2
203,1979005,39,17,1803.96,Shape1B.png,1,bix.mp3,Shape1B.jpg,2
203,1979005,46,19,4541.68,Shape7B.png,0,pof.mp3,Shape12B.jpg,2
203,1979005,44,20,3414.75,Shape3B.png,1,beb.mp3,Shape3B.jpg,2
203,1979005,45,21,4323.845,Shape12B.png,0,sut.mp3,Shape9B.jpg,2
203,1979005,51,22,4295.18,Shape11B.png,1,pag.mp3,Shape11B.jpg,2
203,1979005,49,23,2875.285,Shape10B.png,0,sut.mp3,Shape9B.jpg,2
203,1979005,50,24,2571.4,Shape7B.png,0,dep.mp3,Shape8B.jpg,2
203,1979005,54,26,2654.745,Shape8B.png,0,sut.mp3,Shape9B.jpg,3
203,1979005,56,27,4792.365,Shape5B.png,1,gex.mp3,Shape5B.jpg,3
203,1979005,60,28,2505.495,Shape8B.png,0,gop.mp3,Shape6B.jpg,3
203,1979005,61,29,2986.04,Shape4B.png,1,fum.mp3,Shape4B.jpg,3
203,1979005,62,30,3838.595,Shape1B.png,0,pof.mp3,Shape12B.jpg,3
203,1979005,66,31,3081.535,Shape1B.png,0,gop.mp3,Shape6B.jpg,3
203,1979005,65,32,1906.925,Shape1B.png,1,bix.mp3,Shape1B.jpg,3
203,1979005,67,33,3752.99,Shape2B.png,0,gop.mp3,Shape6B.jpg,3
203,1979005,71,34,3047.095,Shape6B.png,0,saf.mp3,Shape7B.jpg,3
203,1979005,70,35,2892.975,Shape12B.png,0,pag.mp3,Shape11B.jpg,3
203,1979005,72,36,2669.77,Shape3B.png,1,beb.mp3,Shape3B.jpg,3
102,1976857,14,1,3980.88,Shape5B.png,0,fip.mp3,Shape2B.jpg,1
102,1976857,12,2,3318.83,Shape1B.png,1,bix.mp3,Shape1B.jpg,1
102,1976857,13,3,2516.75,Shape4B.png,1,fum.mp3,Shape4B.jpg,1
102,1976857,18,4,1757.59,Shape11B.png,1,pag.mp3,Shape11B.jpg,1
102,1976857,17,5,4940.19,Shape12B.png,1,pof.mp3,Shape12B.jpg,1
102,1976857,19,6,1709.59,Shape8B.png,1,dep.mp3,Shape8B.jpg,1
102,1976857,23,7,2432.55,Shape8B.png,1,dep.mp3,Shape8B.jpg,1
102,1976857,24,8,2057.77,Shape2B.png,1,fip.mp3,Shape2B.jpg,1
102,1976857,22,9,2836.575,Shape5B.png,1,gex.mp3,Shape5B.jpg,1
102,1976857,29,10,2893.64,Shape10B.png,1,dod.mp3,Shape10B.jpg,1
102,1976857,30,11,3932.19,Shape7B.png,1,saf.mp3,Shape7B.jpg,1
102,1976857,28,12,2165.225,Shape3B.png,1,beb.mp3,Shape3B.jpg,1
102,1976857,34,13,2433.16,Shape10B.png,1,dod.mp3,Shape10B.jpg,2
102,1976857,35,14,3450.83,Shape4B.png,0,dod.mp3,Shape10B.jpg,2
102,1976857,33,15,1895.375,Shape4B.png,1,fum.mp3,Shape4B.jpg,2
102,1976857,38,16,2372.04,Shape7B.png,1,saf.mp3,Shape7B.jpg,2
102,1976857,39,17,1846.605,Shape1B.png,1,bix.mp3,Shape1B.jpg,2
102,1976857,40,18,2607.135,Shape5B.png,1,gex.mp3,Shape5B.jpg,2
102,1976857,45,19,2487.995,Shape9B.png,1,sut.mp3,Shape9B.jpg,2
102,1976857,46,20,2148.855,Shape12B.png,1,pof.mp3,Shape12B.jpg,2
102,1976857,44,21,1929.735,Shape3B.png,1,beb.mp3,Shape3B.jpg,2
102,1976857,51,22,1648.525,Shape11B.png,1,pag.mp3,Shape11B.jpg,2
102,1976857,49,23,3875.22,Shape10B.png,0,sut.mp3,Shape9B.jpg,2
102,1976857,50,24,4271.17,Shape7B.png,0,dep.mp3,Shape8B.jpg,2
102,1976857,54,25,2113.065,Shape9B.png,1,sut.mp3,Shape9B.jpg,3
102,1976857,56,26,4245.67,Shape5B.png,1,gex.mp3,Shape5B.jpg,3
102,1976857,55,27,2957.58,Shape2B.png,1,fip.mp3,Shape2B.jpg,3
102,1976857,61,28,2306.98,Shape4B.png,1,fum.mp3,Shape4B.jpg,3
102,1976857,62,29,2099.445,Shape12B.png,1,pof.mp3,Shape12B.jpg,3
102,1976857,60,30,2146.75,Shape6B.png,1,gop.mp3,Shape6B.jpg,3
102,1976857,67,31,2840.675,Shape6B.png,1,gop.mp3,Shape6B.jpg,3
102,1976857,66,32,3176.825,Shape6B.png,1,gop.mp3,Shape6B.jpg,3
102,1976857,65,33,3626.79,Shape1B.png,1,bix.mp3,Shape1B.jpg,3
102,1976857,70,34,1703.885,Shape11B.png,1,pag.mp3,Shape11B.jpg,3
102,1976857,71,35,2278.62,Shape7B.png,1,saf.mp3,Shape7B.jpg,3
102,1976857,72,36,2291.66,Shape3B.png,1,beb.mp3,Shape3B.jpg,3
134,1976820,12,1,1920.299784,Shape1B.png,1,bix.mp3,Shape1B.jpg,1
134,1976820,13,2,1803.999869,Shape4B.png,1,fum.mp3,Shape4B.jpg,1
134,1976820,14,3,2655.400147,Shape2B.png,1,fip.mp3,Shape2B.jpg,1
134,1976820,17,4,1794.100067,Shape12B.png,1,pof.mp3,Shape12B.jpg,1
134,1976820,18,5,1134.90032,Shape11B.png,1,pag.mp3,Shape11B.jpg,1
134,1976820,19,6,1846.69977,Shape8B.png,1,dep.mp3,Shape8B.jpg,1
134,1976820,24,7,3999.199905,Shape2B.png,1,fip.mp3,Shape2B.jpg,1
134,1976820,22,8,1483.59995,Shape5B.png,1,gex.mp3,Shape5B.jpg,1
134,1976820,23,9,1521.000122,Shape8B.png,1,dep.mp3,Shape8B.jpg,1
134,1976820,29,10,2298.200033,Shape10B.png,1,dod.mp3,Shape10B.jpg,1
134,1976820,28,11,1477.400067,Shape3B.png,1,beb.mp3,Shape3B.jpg,1
134,1976820,30,12,1231.100079,Shape7B.png,1,saf.mp3,Shape7B.jpg,1
134,1976820,34,13,1827.400085,Shape10B.png,1,dod.mp3,Shape10B.jpg,2
134,1976820,35,14,2368.999904,Shape10B.png,1,dod.mp3,Shape10B.jpg,2
134,1976820,33,15,1691.899788,Shape4B.png,1,fum.mp3,Shape4B.jpg,2
134,1976820,39,16,1256.800143,Shape1B.png,1,bix.mp3,Shape1B.jpg,2
134,1976820,40,17,1458.899721,Shape5B.png,1,gex.mp3,Shape5B.jpg,2
134,1976820,38,18,1544.899879,Shape7B.png,1,saf.mp3,Shape7B.jpg,2
134,1976820,45,19,1185.300236,Shape9B.png,1,sut.mp3,Shape9B.jpg,2
134,1976820,46,20,1859.900009,Shape12B.png,1,pof.mp3,Shape12B.jpg,2
134,1976820,44,21,2541.799937,Shape3B.png,1,beb.mp3,Shape3B.jpg,2
134,1976820,51,22,1345.399947,Shape11B.png,1,pag.mp3,Shape11B.jpg,2
134,1976820,49,23,1281.000077,Shape9B.png,1,sut.mp3,Shape9B.jpg,2
134,1976820,50,24,1934.200058,Shape8B.png,1,dep.mp3,Shape8B.jpg,2
134,1976820,56,25,1679.500022,Shape5B.png,1,gex.mp3,Shape5B.jpg,3
134,1976820,55,26,2144.499945,Shape2B.png,1,fip.mp3,Shape2B.jpg,3
134,1976820,54,27,2020.300275,Shape9B.png,1,sut.mp3,Shape9B.jpg,3
134,1976820,62,28,1488.699939,Shape12B.png,1,pof.mp3,Shape12B.jpg,3
134,1976820,60,29,3265.100133,Shape8B.png,0,gop.mp3,Shape6B.jpg,3
134,1976820,61,30,1800.099832,Shape4B.png,1,fum.mp3,Shape4B.jpg,3
134,1976820,67,31,2378.700343,Shape6B.png,1,gop.mp3,Shape6B.jpg,3
134,1976820,65,32,1351.500149,Shape1B.png,1,bix.mp3,Shape1B.jpg,3
134,1976820,66,33,2122.599858,Shape6B.png,1,gop.mp3,Shape6B.jpg,3
134,1976820,70,34,1814.600083,Shape11B.png,1,pag.mp3,Shape11B.jpg,3
134,1976820,71,35,1923.300045,Shape7B.png,1,saf.mp3,Shape7B.jpg,3
134,1976820,72,36,1219.600089,Shape3B.png,1,beb.mp3,Shape3B.jpg,3
17,1972700,14,1,2746.01,Shape2B.png,1,fip.mp3,Shape2B.jpg,1
17,1972700,12,2,2888.71,Shape1B.png,1,bix.mp3,Shape1B.jpg,1
17,1972700,13,3,4639.7,Shape3B.png,0,fum.mp3,Shape4B.jpg,1
17,1972700,19,4,3987.795,Shape8B.png,1,dep.mp3,Shape8B.jpg,1
17,1972700,17,5,2180.72,Shape12B.png,1,pof.mp3,Shape12B.jpg,1
17,1972700,18,6,1976.78,Shape11B.png,1,pag.mp3,Shape11B.jpg,1
17,1972700,24,7,3545.65,Shape2B.png,1,fip.mp3,Shape2B.jpg,1
17,1972700,22,8,3258.655,Shape5B.png,1,gex.mp3,Shape5B.jpg,1
17,1972700,23,9,2272.545,Shape8B.png,1,dep.mp3,Shape8B.jpg,1
17,1972700,30,10,1796.795,Shape7B.png,1,saf.mp3,Shape7B.jpg,1
17,1972700,29,11,3427.6,Shape10B.png,1,dod.mp3,Shape10B.jpg,1
17,1972700,28,12,2022.475,Shape3B.png,1,beb.mp3,Shape3B.jpg,1
17,1972700,35,13,2819.415,Shape10B.png,1,dod.mp3,Shape10B.jpg,2
17,1972700,33,14,4393.525,Shape4B.png,1,fum.mp3,Shape4B.jpg,2
17,1972700,34,15,3170.6,Shape10B.png,1,dod.mp3,Shape10B.jpg,2
17,1972700,39,16,2637.56,Shape1B.png,1,bix.mp3,Shape1B.jpg,2
17,1972700,40,17,3048.345,Shape5B.png,1,gex.mp3,Shape5B.jpg,2
17,1972700,46,19,2775.01,Shape12B.png,1,pof.mp3,Shape12B.jpg,2
17,1972700,44,21,3528.91,Shape3B.png,1,beb.mp3,Shape3B.jpg,2
17,1972700,50,22,3336.25,Shape8B.png,1,dep.mp3,Shape8B.jpg,2
17,1972700,49,23,2872.685,Shape9B.png,1,sut.mp3,Shape9B.jpg,2
17,1972700,51,24,2737.7,Shape11B.png,1,pag.mp3,Shape11B.jpg,2
17,1972700,56,25,2111.195,Shape5B.png,1,gex.mp3,Shape5B.jpg,3
17,1972700,55,26,2910.865,Shape2B.png,1,fip.mp3,Shape2B.jpg,3
17,1972700,54,27,2300.595,Shape9B.png,1,sut.mp3,Shape9B.jpg,3
17,1972700,60,28,2638.56,Shape6B.png,1,gop.mp3,Shape6B.jpg,3
17,1972700,61,29,2358.48,Shape4B.png,1,fum.mp3,Shape4B.jpg,3
17,1972700,65,32,1910.135,Shape1B.png,1,bix.mp3,Shape1B.jpg,3
17,1972700,67,33,1953.77,Shape6B.png,1,gop.mp3,Shape6B.jpg,3
17,1972700,70,34,2407.49,Shape11B.png,1,pag.mp3,Shape11B.jpg,3
17,1972700,72,35,2998.93,Shape3B.png,1,beb.mp3,Shape3B.jpg,3
17,1972700,71,36,4525.34,Shape7B.png,1,saf.mp3,Shape7B.jpg,3
194,1966511,13,1,4018.975,Shape4B.png,1,fum.mp3,Shape4B.jpg,1
194,1966511,14,2,2932.745,Shape2B.png,1,fip.mp3,Shape2B.jpg,1
194,1966511,12,3,3401.145,Shape1B.png,1,bix.mp3,Shape1B.jpg,1
194,1966511,18,4,4553.63,Shape11B.png,1,pag.mp3,Shape11B.jpg,1
194,1966511,17,5,2509.445,Shape12B.png,1,pof.mp3,Shape12B.jpg,1
194,1966511,19,6,3799.64,Shape8B.png,1,dep.mp3,Shape8B.jpg,1
194,1966511,24,7,3917.91,Shape2B.png,1,fip.mp3,Shape2B.jpg,1
194,1966511,23,8,4283.235,Shape8B.png,1,dep.mp3,Shape8B.jpg,1
194,1966511,22,9,4500.685,Shape5B.png,1,gex.mp3,Shape5B.jpg,1
194,1966511,30,10,3965.67,Shape7B.png,1,saf.mp3,Shape7B.jpg,1
194,1966511,29,11,2219.03,Shape10B.png,1,dod.mp3,Shape10B.jpg,1
194,1966511,28,12,2332.645,Shape3B.png,1,beb.mp3,Shape3B.jpg,1
194,1966511,34,13,4812.725,Shape10B.png,1,dod.mp3,Shape10B.jpg,2
194,1966511,33,15,3280.17,Shape4B.png,1,fum.mp3,Shape4B.jpg,2
194,1966511,39,16,3365.62,Shape1B.png,1,bix.mp3,Shape1B.jpg,2
194,1966511,40,17,2664.83,Shape5B.png,1,gex.mp3,Shape5B.jpg,2
194,1966511,38,18,2555.675,Shape7B.png,1,saf.mp3,Shape7B.jpg,2
194,1966511,46,19,3555.785,Shape12B.png,1,pof.mp3,Shape12B.jpg,2
194,1966511,49,22,4455.28,Shape9B.png,1,sut.mp3,Shape9B.jpg,2
194,1966511,56,25,3584.895,Shape5B.png,1,gex.mp3,Shape5B.jpg,3
194,1966511,54,26,4933.825,Shape9B.png,1,sut.mp3,Shape9B.jpg,3
194,1966511,55,27,2250.505,Shape2B.png,1,fip.mp3,Shape2B.jpg,3
194,1966511,62,28,4145.53,Shape12B.png,1,pof.mp3,Shape12B.jpg,3
194,1966511,60,29,3331.27,Shape6B.png,1,gop.mp3,Shape6B.jpg,3
194,1966511,61,30,4572.395,Shape4B.png,1,fum.mp3,Shape4B.jpg,3
194,1966511,66,31,3447.525,Shape6B.png,1,gop.mp3,Shape6B.jpg,3
194,1966511,65,32,2378.425,Shape1B.png,1,bix.mp3,Shape1B.jpg,3
194,1966511,67,33,2424.15,Shape6B.png,1,gop.mp3,Shape6B.jpg,3
194,1966511,71,34,2612.33,Shape7B.png,1,saf.mp3,Shape7B.jpg,3
194,1966511,72,35,2927.21,Shape3B.png,1,beb.mp3,Shape3B.jpg,3
194,1966511,70,36,3056.2,Shape11B.png,1,pag.mp3,Shape11B.jpg,3
103,1961643,12,1,2827.48,Shape1B.png,1,bix.mp3,Shape1B.jpg,1
103,1961643,13,2,1815.525,Shape4B.png,1,fum.mp3,Shape4B.jpg,1
103,1961643,14,3,1827.16,Shape2B.png,1,fip.mp3,Shape2B.jpg,1
103,1961643,18,4,2567.41,Shape11B.png,1,pag.mp3,Shape11B.jpg,1
103,1961643,17,5,2250.45,Shape12B.png,1,pof.mp3,Shape12B.jpg,1
103,1961643,19,6,2789.46,Shape8B.png,1,dep.mp3,Shape8B.jpg,1
103,1961643,24,7,1398.94,Shape2B.png,1,fip.mp3,Shape2B.jpg,1
103,1961643,23,8,2312.15,Shape8B.png,1,dep.mp3,Shape8B.jpg,1
103,1961643,22,9,2019.895,Shape5B.png,1,gex.mp3,Shape5B.jpg,1
103,1961643,30,10,1885.545,Shape7B.png,1,saf.mp3,Shape7B.jpg,1
103,1961643,29,11,1966.065,Shape10B.png,1,dod.mp3,Shape10B.jpg,1
103,1961643,28,12,2122.81,Shape3B.png,1,beb.mp3,Shape3B.jpg,1
103,1961643,35,13,2650.475,Shape10B.png,1,dod.mp3,Shape10B.jpg,2
103,1961643,33,14,1765.06,Shape4B.png,1,fum.mp3,Shape4B.jpg,2
103,1961643,34,15,3547.055,Shape6B.png,0,dod.mp3,Shape10B.jpg,2
103,1961643,38,16,2050.76,Shape7B.png,1,saf.mp3,Shape7B.jpg,2
103,1961643,40,17,1265.025,Shape5B.png,1,gex.mp3,Shape5B.jpg,2
103,1961643,39,18,2118.185,Shape1B.png,1,bix.mp3,Shape1B.jpg,2
103,1961643,44,19,1783.285,Shape3B.png,1,beb.mp3,Shape3B.jpg,2
103,1961643,46,20,1276.715,Shape12B.png,1,pof.mp3,Shape12B.jpg,2
103,1961643,45,21,2336.975,Shape9B.png,1,sut.mp3,Shape9B.jpg,2
103,1961643,50,22,2416.16,Shape8B.png,1,dep.mp3,Shape8B.jpg,2
103,1961643,49,23,2110.76,Shape9B.png,1,sut.mp3,Shape9B.jpg,2
103,1961643,51,24,1793.805,Shape11B.png,1,pag.mp3,Shape11B.jpg,2
103,1961643,55,25,2485.555,Shape2B.png,1,fip.mp3,Shape2B.jpg,3
103,1961643,54,26,1163.01,Shape9B.png,1,sut.mp3,Shape9B.jpg,3
103,1961643,56,27,1618.42,Shape5B.png,1,gex.mp3,Shape5B.jpg,3
103,1961643,61,28,1882.935,Shape4B.png,1,fum.mp3,Shape4B.jpg,3
103,1961643,60,29,1869.43,Shape6B.png,1,gop.mp3,Shape6B.jpg,3
103,1961643,62,30,1525,Shape12B.png,1,pof.mp3,Shape12B.jpg,3
103,1961643,67,31,1779.395,Shape6B.png,1,gop.mp3,Shape6B.jpg,3
103,1961643,66,32,1844.32,Shape6B.png,1,gop.mp3,Shape6B.jpg,3
103,1961643,65,33,1864.32,Shape1B.png,1,bix.mp3,Shape1B.jpg,3
103,1961643,70,34,1636.21,Shape11B.png,1,pag.mp3,Shape11B.jpg,3
103,1961643,72,35,1387.665,Shape3B.png,1,beb.mp3,Shape3B.jpg,3
103,1961643,71,36,2146.815,Shape7B.png,1,saf.mp3,Shape7B.jpg,3
169,2030576,14,1,2134.39,Shape2B.png,1,fip.mp3,Shape2B.jpg,1
169,2030576,12,2,2374.575,Shape1B.png,1,bix.mp3,Shape1B.jpg,1
169,2030576,13,3,1803.68,Shape4B.png,1,fum.mp3,Shape4B.jpg,1
169,2030576,19,4,2641.075,Shape8B.png,1,dep.mp3,Shape8B.jpg,1
169,2030576,17,5,3209.11,Shape12B.png,1,pof.mp3,Shape12B.jpg,1
169,2030576,18,6,2247.925,Shape11B.png,1,pag.mp3,Shape11B.jpg,1
169,2030576,22,7,2150.615,Shape5B.png,1,gex.mp3,Shape5B.jpg,1
169,2030576,24,8,2172.38,Shape2B.png,1,fip.mp3,Shape2B.jpg,1
169,2030576,23,9,1580.475,Shape8B.png,1,dep.mp3,Shape8B.jpg,1
169,2030576,28,10,1995.805,Shape3B.png,1,beb.mp3,Shape3B.jpg,1
169,2030576,30,11,2890.885,Shape7B.png,1,saf.mp3,Shape7B.jpg,1
169,2030576,29,12,1564.985,Shape10B.png,1,dod.mp3,Shape10B.jpg,1
169,2030576,33,13,2596.57,Shape4B.png,1,fum.mp3,Shape4B.jpg,2
169,2030576,35,14,1964.9,Shape10B.png,1,dod.mp3,Shape10B.jpg,2
169,2030576,34,15,2871.225,Shape10B.png,1,dod.mp3,Shape10B.jpg,2
169,2030576,39,16,1746.77,Shape1B.png,1,bix.mp3,Shape1B.jpg,2
169,2030576,38,17,4169.27,Shape7B.png,1,saf.mp3,Shape7B.jpg,2
169,2030576,40,18,1713.35,Shape5B.png,1,gex.mp3,Shape5B.jpg,2
169,2030576,44,19,2046.575,Shape3B.png,1,beb.mp3,Shape3B.jpg,2
169,2030576,46,20,2578.315,Shape12B.png,1,pof.mp3,Shape12B.jpg,2
169,2030576,45,21,2606.555,Shape9B.png,1,sut.mp3,Shape9B.jpg,2
169,2030576,50,22,2278.36,Shape8B.png,1,dep.mp3,Shape8B.jpg,2
169,2030576,49,23,1736.305,Shape9B.png,1,sut.mp3,Shape9B.jpg,2
169,2030576,51,24,1406.21,Shape11B.png,1,pag.mp3,Shape11B.jpg,2
169,2030576,56,25,2030.605,Shape5B.png,1,gex.mp3,Shape5B.jpg,3
169,2030576,55,26,3120.405,Shape2B.png,1,fip.mp3,Shape2B.jpg,3
169,2030576,54,27,2936.105,Shape9B.png,1,sut.mp3,Shape9B.jpg,3
169,2030576,61,28,2549.755,Shape4B.png,1,fum.mp3,Shape4B.jpg,3
169,2030576,60,29,3349.99,Shape6B.png,1,gop.mp3,Shape6B.jpg,3
169,2030576,62,30,2164.205,Shape12B.png,1,pof.mp3,Shape12B.jpg,3
169,2030576,65,31,4699.965,Shape1B.png,1,bix.mp3,Shape1B.jpg,3
169,2030576,67,32,3470.97,Shape6B.png,1,gop.mp3,Shape6B.jpg,3
169,2030576,66,33,3094.725,Shape6B.png,1,gop.mp3,Shape6B.jpg,3
169,2030576,72,34,2908.61,Shape3B.png,1,beb.mp3,Shape3B.jpg,3
169,2030576,71,35,3060.055,Shape7B.png,1,saf.mp3,Shape7B.jpg,3
169,2030576,70,36,2399.03,Shape11B.png,1,pag.mp3,Shape11B.jpg,3
22,2064905,12,1,1719.295,Shape3B.png,1,beb.mp3,Shape3B.jpg,1
22,2064905,14,2,3249.425,Shape7B.png,1,saf.mp3,Shape7B.jpg,1
22,2064905,13,3,3038.23,Shape10B.png,1,dod.mp3,Shape10B.jpg,1
22,2064905,19,4,2000.48,Shape8B.png,1,dep.mp3,Shape8B.jpg,1
22,2064905,17,5,1822.665,Shape12B.png,1,pof.mp3,Shape12B.jpg,1
22,2064905,18,6,1315.245,Shape11B.png,1,pag.mp3,Shape11B.jpg,1
22,2064905,24,7,1807.035,Shape5B.png,1,gex.mp3,Shape5B.jpg,1
22,2064905,22,8,1709.19,Shape9B.png,1,sut.mp3,Shape9B.jpg,1
22,2064905,23,9,1300.33,Shape2B.png,1,fip.mp3,Shape2B.jpg,1
22,2064905,29,10,1527.5,Shape1B.png,1,bix.mp3,Shape1B.jpg,1
22,2064905,30,11,1870.79,Shape5B.png,1,gex.mp3,Shape5B.jpg,1
22,2064905,28,12,1752.855,Shape7B.png,1,saf.mp3,Shape7B.jpg,1
22,2064905,34,13,1671.525,Shape6B.png,1,gop.mp3,Shape6B.jpg,2
22,2064905,35,14,1946,Shape6B.png,1,gop.mp3,Shape6B.jpg,2
22,2064905,33,15,2041.87,Shape1B.png,1,bix.mp3,Shape1B.jpg,2
22,2064905,40,16,2180.74,Shape2B.png,1,fip.mp3,Shape2B.jpg,2
22,2064905,38,17,1533.6,Shape1B.png,1,bix.mp3,Shape1B.jpg,2
22,2064905,39,18,1793.74,Shape4B.png,1,fum.mp3,Shape4B.jpg,2
22,2064905,46,19,1680.725,Shape12B.png,1,pof.mp3,Shape12B.jpg,2
22,2064905,45,20,1448.37,Shape9B.png,1,sut.mp3,Shape9B.jpg,2
22,2064905,44,21,1344.91,Shape3B.png,1,beb.mp3,Shape3B.jpg,2
22,2064905,51,22,1649.565,Shape12B.png,1,pof.mp3,Shape12B.jpg,2
22,2064905,49,23,1378.735,Shape6B.png,1,gop.mp3,Shape6B.jpg,2
22,2064905,50,24,1245.135,Shape4B.png,1,fum.mp3,Shape4B.jpg,2
22,2064905,56,25,1770.99,Shape10B.png,1,dod.mp3,Shape10B.jpg,3
22,2064905,55,26,2209.415,Shape6B.png,0,dod.mp3,Shape10B.jpg,3
22,2064905,54,27,1616.27,Shape4B.png,1,fum.mp3,Shape4B.jpg,3
22,2064905,62,28,2423.7,Shape3B.png,1,beb.mp3,Shape3B.jpg,3
22,2064905,61,29,1523.425,Shape7B.png,1,saf.mp3,Shape7B.jpg,3
22,2064905,60,30,1337.42,Shape11B.png,1,pag.mp3,Shape11B.jpg,3
22,2064905,65,31,1359.06,Shape9B.png,1,sut.mp3,Shape9B.jpg,3
22,2064905,66,32,2125.8,Shape8B.png,1,dep.mp3,Shape8B.jpg,3
22,2064905,67,33,1408.795,Shape11B.png,1,pag.mp3,Shape11B.jpg,3
22,2064905,71,34,2916.465,Shape8B.png,1,dep.mp3,Shape8B.jpg,3
22,2064905,72,35,2659.975,Shape2B.png,1,fip.mp3,Shape2B.jpg,3
22,2064905,70,36,1492.86,Shape5B.png,1,gex.mp3,Shape5B.jpg,3
55,2035069,12,1,1800.53,Shape3B.png,1,beb.mp3,Shape3B.jpg,1
55,2035069,13,2,1851.975,Shape10B.png,1,dod.mp3,Shape10B.jpg,1
55,2035069,14,3,2541.975,Shape7B.png,1,saf.mp3,Shape7B.jpg,1
55,2035069,19,4,2649.825,Shape3B.png,0,dep.mp3,Shape8B.jpg,1
55,2035069,17,5,3084.155,Shape12B.png,1,pof.mp3,Shape12B.jpg,1
55,2035069,18,6,1624.28,Shape11B.png,1,pag.mp3,Shape11B.jpg,1
55,2035069,22,7,1650.18,Shape9B.png,1,sut.mp3,Shape9B.jpg,1
55,2035069,23,8,1698.235,Shape2B.png,1,fip.mp3,Shape2B.jpg,1
55,2035069,24,9,1473.625,Shape5B.png,1,gex.mp3,Shape5B.jpg,1
55,2035069,30,10,2199.34,Shape5B.png,1,gex.mp3,Shape5B.jpg,1
55,2035069,29,11,1589.27,Shape1B.png,1,bix.mp3,Shape1B.jpg,1
55,2035069,28,12,3736.2,Shape7B.png,1,saf.mp3,Shape7B.jpg,1
55,2035069,34,13,3451.32,Shape6B.png,1,gop.mp3,Shape6B.jpg,2
55,2035069,35,14,2414.33,Shape6B.png,1,gop.mp3,Shape6B.jpg,2
55,2035069,33,15,3563.145,Shape1B.png,1,bix.mp3,Shape1B.jpg,2
55,2035069,40,16,2773.565,Shape5B.png,0,fip.mp3,Shape2B.jpg,2
55,2035069,39,17,1861.125,Shape4B.png,1,fum.mp3,Shape4B.jpg,2
55,2035069,38,18,2914.435,Shape10B.png,0,bix.mp3,Shape1B.jpg,2
55,2035069,44,19,1922.405,Shape3B.png,1,beb.mp3,Shape3B.jpg,2
55,2035069,46,20,2514.595,Shape12B.png,1,pof.mp3,Shape12B.jpg,2
55,2035069,45,21,2022.73,Shape9B.png,1,sut.mp3,Shape9B.jpg,2
55,2035069,50,22,1896.555,Shape4B.png,1,fum.mp3,Shape4B.jpg,2
55,2035069,51,23,1781.65,Shape12B.png,1,pof.mp3,Shape12B.jpg,2
55,2035069,49,24,1698.625,Shape6B.png,1,gop.mp3,Shape6B.jpg,2
55,2035069,56,25,2359.265,Shape10B.png,1,dod.mp3,Shape10B.jpg,3
55,2035069,55,26,1796.855,Shape10B.png,1,dod.mp3,Shape10B.jpg,3
55,2035069,54,27,1463.96,Shape1B.png,0,fum.mp3,Shape4B.jpg,3
55,2035069,60,28,2054.505,Shape11B.png,1,pag.mp3,Shape11B.jpg,3
55,2035069,61,29,4791.94,Shape7B.png,1,saf.mp3,Shape7B.jpg,3
55,2035069,62,30,3271.71,Shape3B.png,1,beb.mp3,Shape3B.jpg,3
55,2035069,65,31,2908.205,Shape9B.png,1,sut.mp3,Shape9B.jpg,3
55,2035069,66,32,2520.985,Shape8B.png,1,dep.mp3,Shape8B.jpg,3
55,2035069,67,33,1462.77,Shape11B.png,1,pag.mp3,Shape11B.jpg,3
55,2035069,71,34,2759.51,Shape8B.png,1,dep.mp3,Shape8B.jpg,3
55,2035069,70,35,1859.655,Shape6B.png,0,gex.mp3,Shape5B.jpg,3
55,2035069,72,36,3538.565,Shape9B.png,0,fip.mp3,Shape2B.jpg,3
10083,2030331,14,1,1627.37,Shape7B.png,1,saf.mp3,Shape7B.jpg,1
10083,2030331,13,2,2978.73,Shape11B.png,0,dod.mp3,Shape10B.jpg,1
10083,2030331,12,3,2616.9,Shape11B.png,0,beb.mp3,Shape3B.jpg,1
10083,2030331,19,4,2491.5,Shape8B.png,1,dep.mp3,Shape8B.jpg,1
10083,2030331,17,5,2240.095,Shape12B.png,1,pof.mp3,Shape12B.jpg,1
10083,2030331,22,7,3298.35,Shape9B.png,1,sut.mp3,Shape9B.jpg,1
10083,2030331,23,8,3789.19,Shape2B.png,1,fip.mp3,Shape2B.jpg,1
10083,2030331,30,10,4440.18,Shape5B.png,1,gex.mp3,Shape5B.jpg,1
10083,2030331,28,11,3025.645,Shape11B.png,0,saf.mp3,Shape7B.jpg,1
10083,2030331,29,12,4516.845,Shape1B.png,1,bix.mp3,Shape1B.jpg,1
10083,2030331,34,13,3667.8,Shape6B.png,1,gop.mp3,Shape6B.jpg,2
10083,2030331,33,14,4579.035,Shape2B.png,0,bix.mp3,Shape1B.jpg,2
10083,2030331,39,16,2587.07,Shape3B.png,0,fum.mp3,Shape4B.jpg,2
10083,2030331,44,19,4381.845,Shape3B.png,1,beb.mp3,Shape3B.jpg,2
10083,2030331,45,20,3819.58,Shape9B.png,1,sut.mp3,Shape9B.jpg,2
10083,2030331,46,21,4263.45,Shape7B.png,0,pof.mp3,Shape12B.jpg,2
10083,2030331,49,22,4156.555,Shape8B.png,0,gop.mp3,Shape6B.jpg,2
10083,2030331,50,23,3699.585,Shape4B.png,1,fum.mp3,Shape4B.jpg,2
10083,2030331,62,29,4685.63,Shape3B.png,1,beb.mp3,Shape3B.jpg,3
10083,2030331,61,30,3868.205,Shape7B.png,1,saf.mp3,Shape7B.jpg,3
10083,2030331,66,32,3585.72,Shape7B.png,0,dep.mp3,Shape8B.jpg,3
10083,2030331,72,35,4470.115,Shape2B.png,1,fip.mp3,Shape2B.jpg,3
105,2023631,13,1,1502.235,Shape10B.png,1,dod.mp3,Shape10B.jpg,1
105,2023631,14,2,1635.175,Shape7B.png,1,saf.mp3,Shape7B.jpg,1
105,2023631,12,3,1651.355,Shape3B.png,1,beb.mp3,Shape3B.jpg,1
105,2023631,17,4,2346.835,Shape12B.png,1,pof.mp3,Shape12B.jpg,1
105,2023631,18,5,4344.095,Shape8B.png,0,pag.mp3,Shape11B.jpg,1
105,2023631,19,6,1607.885,Shape3B.png,0,dep.mp3,Shape8B.jpg,1
105,2023631,23,8,1487.375,Shape2B.png,1,fip.mp3,Shape2B.jpg,1
105,2023631,24,9,2518.76,Shape5B.png,1,gex.mp3,Shape5B.jpg,1
105,2023631,29,10,1486.375,Shape1B.png,1,bix.mp3,Shape1B.jpg,1
105,2023631,30,11,1559.71,Shape5B.png,1,gex.mp3,Shape5B.jpg,1
105,2023631,28,12,1268.12,Shape7B.png,1,saf.mp3,Shape7B.jpg,1
105,2023631,33,13,2772.62,Shape2B.png,0,bix.mp3,Shape1B.jpg,2
105,2023631,34,14,1966.39,Shape6B.png,1,gop.mp3,Shape6B.jpg,2
105,2023631,35,15,2571.935,Shape2B.png,0,gop.mp3,Shape6B.jpg,2
105,2023631,38,16,1601.68,Shape1B.png,1,bix.mp3,Shape1B.jpg,2
105,2023631,40,17,1594.93,Shape2B.png,1,fip.mp3,Shape2B.jpg,2
105,2023631,39,18,4132.655,Shape3B.png,0,fum.mp3,Shape4B.jpg,2
105,2023631,44,19,1636.66,Shape3B.png,1,beb.mp3,Shape3B.jpg,2
105,2023631,46,20,1651.41,Shape12B.png,1,pof.mp3,Shape12B.jpg,2
105,2023631,45,21,2556.145,Shape9B.png,1,sut.mp3,Shape9B.jpg,2
105,2023631,50,22,1420.53,Shape4B.png,1,fum.mp3,Shape4B.jpg,2
105,2023631,49,23,1714.87,Shape6B.png,1,gop.mp3,Shape6B.jpg,2
105,2023631,51,24,2725.375,Shape12B.png,1,pof.mp3,Shape12B.jpg,2
105,2023631,54,25,1590.01,Shape4B.png,1,fum.mp3,Shape4B.jpg,3
105,2023631,56,26,1257.335,Shape10B.png,1,dod.mp3,Shape10B.jpg,3
105,2023631,55,27,3635.065,Shape10B.png,1,dod.mp3,Shape10B.jpg,3
105,2023631,62,28,1633.205,Shape3B.png,1,beb.mp3,Shape3B.jpg,3
105,2023631,61,29,2499.425,Shape7B.png,1,saf.mp3,Shape7B.jpg,3
105,2023631,60,30,2114.37,Shape11B.png,1,pag.mp3,Shape11B.jpg,3
105,2023631,67,31,1760.535,Shape11B.png,1,pag.mp3,Shape11B.jpg,3
105,2023631,66,32,1912.645,Shape8B.png,1,dep.mp3,Shape8B.jpg,3
105,2023631,65,33,2802.435,Shape9B.png,1,sut.mp3,Shape9B.jpg,3
105,2023631,71,34,2108.955,Shape8B.png,1,dep.mp3,Shape8B.jpg,3
105,2023631,70,35,1445.19,Shape5B.png,1,gex.mp3,Shape5B.jpg,3
105,2023631,72,36,2473.065,Shape2B.png,1,fip.mp3,Shape2B.jpg,3
144,2015926,14,1,2110.49,Shape7B.png,1,saf.mp3,Shape7B.jpg,1
144,2015926,12,2,3277.935,Shape3B.png,1,beb.mp3,Shape3B.jpg,1
144,2015926,13,3,3460.625,Shape10B.png,1,dod.mp3,Shape10B.jpg,1
144,2015926,18,4,2050.72,Shape11B.png,1,pag.mp3,Shape11B.jpg,1
144,2015926,17,5,3171.755,Shape12B.png,1,pof.mp3,Shape12B.jpg,1
144,2015926,19,6,2206.085,Shape8B.png,1,dep.mp3,Shape8B.jpg,1
144,2015926,22,7,2626.8,Shape9B.png,1,sut.mp3,Shape9B.jpg,1
144,2015926,23,8,3002.67,Shape2B.png,1,fip.mp3,Shape2B.jpg,1
144,2015926,24,9,2792.39,Shape5B.png,1,gex.mp3,Shape5B.jpg,1
144,2015926,28,10,4193.51,Shape7B.png,1,saf.mp3,Shape7B.jpg,1
144,2015926,29,11,3449.855,Shape1B.png,1,bix.mp3,Shape1B.jpg,1
144,2015926,30,12,3077.51,Shape5B.png,1,gex.mp3,Shape5B.jpg,1
144,2015926,33,13,2530.405,Shape1B.png,1,bix.mp3,Shape1B.jpg,2
144,2015926,35,14,3009.645,Shape6B.png,1,gop.mp3,Shape6B.jpg,2
144,2015926,34,15,3506.77,Shape6B.png,1,gop.mp3,Shape6B.jpg,2
144,2015926,38,16,2420.395,Shape1B.png,1,bix.mp3,Shape1B.jpg,2
144,2015926,39,17,2254.015,Shape4B.png,1,fum.mp3,Shape4B.jpg,2
144,2015926,40,18,2240.68,Shape2B.png,1,fip.mp3,Shape2B.jpg,2
144,2015926,46,19,3500.99,Shape12B.png,1,pof.mp3,Shape12B.jpg,2
144,2015926,44,20,2966.65,Shape3B.png,1,beb.mp3,Shape3B.jpg,2
144,2015926,45,21,2268.32,Shape9B.png,1,sut.mp3,Shape9B.jpg,2
144,2015926,49,22,4487.26,Shape6B.png,1,gop.mp3,Shape6B.jpg,2
144,2015926,51,23,3376.27,Shape12B.png,1,pof.mp3,Shape12B.jpg,2
144,2015926,50,24,2127.605,Shape4B.png,1,fum.mp3,Shape4B.jpg,2
144,2015926,54,25,3458.96,Shape4B.png,1,fum.mp3,Shape4B.jpg,3
144,2015926,55,26,4137.535,Shape10B.png,1,dod.mp3,Shape10B.jpg,3
144,2015926,56,27,1763.345,Shape10B.png,1,dod.mp3,Shape10B.jpg,3
144,2015926,62,28,3953.49,Shape3B.png,1,beb.mp3,Shape3B.jpg,3
144,2015926,60,29,2183.705,Shape11B.png,1,pag.mp3,Shape11B.jpg,3
144,2015926,67,31,2650.25,Shape11B.png,1,pag.mp3,Shape11B.jpg,3
144,2015926,66,32,1852.01,Shape8B.png,1,dep.mp3,Shape8B.jpg,3
144,2015926,65,33,1840.97,Shape9B.png,1,sut.mp3,Shape9B.jpg,3
144,2015926,72,34,3030.12,Shape2B.png,1,fip.mp3,Shape2B.jpg,3
144,2015926,71,35,2545.385,Shape8B.png,1,dep.mp3,Shape8B.jpg,3
144,2015926,70,36,1649.835,Shape5B.png,1,gex.mp3,Shape5B.jpg,3
182,2010123,12,1,1261.805,Shape3B.png,1,beb.mp3,Shape3B.jpg,1
182,2010123,13,2,1791.49,Shape10B.png,1,dod.mp3,Shape10B.jpg,1
182,2010123,14,3,1752.985,Shape7B.png,1,saf.mp3,Shape7B.jpg,1
182,2010123,19,4,1235.39,Shape8B.png,1,dep.mp3,Shape8B.jpg,1
182,2010123,17,5,1622.895,Shape12B.png,1,pof.mp3,Shape12B.jpg,1
182,2010123,18,6,3380.69,Shape11B.png,1,pag.mp3,Shape11B.jpg,1
182,2010123,23,7,2048.215,Shape2B.png,1,fip.mp3,Shape2B.jpg,1
182,2010123,24,8,1285.21,Shape5B.png,1,gex.mp3,Shape5B.jpg,1
182,2010123,22,9,2671.205,Shape9B.png,1,sut.mp3,Shape9B.jpg,1
182,2010123,30,10,1914.245,Shape5B.png,1,gex.mp3,Shape5B.jpg,1
182,2010123,29,11,1789.215,Shape1B.png,1,bix.mp3,Shape1B.jpg,1
182,2010123,28,12,1476.53,Shape7B.png,1,saf.mp3,Shape7B.jpg,1
182,2010123,35,13,2832.02,Shape6B.png,1,gop.mp3,Shape6B.jpg,2
182,2010123,34,15,2542.745,Shape6B.png,1,gop.mp3,Shape6B.jpg,2
182,2010123,38,16,1884.67,Shape1B.png,1,bix.mp3,Shape1B.jpg,2
182,2010123,40,17,2936.865,Shape5B.png,0,fip.mp3,Shape2B.jpg,2
182,2010123,39,18,2129.28,Shape4B.png,1,fum.mp3,Shape4B.jpg,2
182,2010123,44,19,3291.105,Shape3B.png,1,beb.mp3,Shape3B.jpg,2
182,2010123,46,21,1732.415,Shape12B.png,1,pof.mp3,Shape12B.jpg,2
182,2010123,50,22,2404.86,Shape4B.png,1,fum.mp3,Shape4B.jpg,2
182,2010123,51,23,1553.685,Shape12B.png,1,pof.mp3,Shape12B.jpg,2
182,2010123,49,24,1640.11,Shape6B.png,1,gop.mp3,Shape6B.jpg,2
182,2010123,56,25,1502.065,Shape10B.png,1,dod.mp3,Shape10B.jpg,3
182,2010123,54,27,2828.62,Shape1B.png,0,fum.mp3,Shape4B.jpg,3
182,2010123,60,28,1859.32,Shape11B.png,1,pag.mp3,Shape11B.jpg,3
182,2010123,61,29,2630.335,Shape7B.png,1,saf.mp3,Shape7B.jpg,3
182,2010123,62,30,2219.06,Shape3B.png,1,beb.mp3,Shape3B.jpg,3
182,2010123,65,31,1446.36,Shape9B.png,1,sut.mp3,Shape9B.jpg,3
182,2010123,66,32,2698.41,Shape8B.png,1,dep.mp3,Shape8B.jpg,3
182,2010123,67,33,2968.18,Shape2B.png,0,pag.mp3,Shape11B.jpg,3
182,2010123,71,35,2659.245,Shape8B.png,1,dep.mp3,Shape8B.jpg,3
182,2010123,70,36,2904.655,Shape5B.png,1,gex.mp3,Shape5B.jpg,3
191,2008306,13,1,1874,Shape11B.png,0,dod.mp3,Shape10B.jpg,1
191,2008306,12,2,2430,Shape3B.png,1,beb.mp3,Shape3B.jpg,1
191,2008306,14,3,1863,Shape7B.png,1,saf.mp3,Shape7B.jpg,1
191,2008306,17,4,2409,Shape12B.png,1,pof.mp3,Shape12B.jpg,1
191,2008306,19,5,3422,Shape8B.png,1,dep.mp3,Shape8B.jpg,1
191,2008306,18,6,2727,Shape11B.png,1,pag.mp3,Shape11B.jpg,1
191,2008306,22,7,2510,Shape9B.png,1,sut.mp3,Shape9B.jpg,1
191,2008306,24,8,2316,Shape5B.png,1,gex.mp3,Shape5B.jpg,1
191,2008306,23,9,2564,Shape2B.png,1,fip.mp3,Shape2B.jpg,1
191,2008306,30,10,3590,Shape5B.png,1,gex.mp3,Shape5B.jpg,1
191,2008306,28,11,2498,Shape7B.png,1,saf.mp3,Shape7B.jpg,1
191,2008306,29,12,2593,Shape1B.png,1,bix.mp3,Shape1B.jpg,1
191,2008306,34,14,4828,Shape6B.png,1,gop.mp3,Shape6B.jpg,2
191,2008306,33,15,2959,Shape1B.png,1,bix.mp3,Shape1B.jpg,2
191,2008306,40,16,2772,Shape2B.png,1,fip.mp3,Shape2B.jpg,2
191,2008306,39,17,2598,Shape4B.png,1,fum.mp3,Shape4B.jpg,2
191,2008306,38,18,2336,Shape1B.png,1,bix.mp3,Shape1B.jpg,2
191,2008306,46,19,2049,Shape12B.png,1,pof.mp3,Shape12B.jpg,2
191,2008306,45,20,2549,Shape9B.png,1,sut.mp3,Shape9B.jpg,2
191,2008306,44,21,2302,Shape3B.png,1,beb.mp3,Shape3B.jpg,2
191,2008306,51,22,4281,Shape1B.png,0,pof.mp3,Shape12B.jpg,2
191,2008306,49,23,1992,Shape6B.png,1,gop.mp3,Shape6B.jpg,2
191,2008306,50,24,1561,Shape4B.png,1,fum.mp3,Shape4B.jpg,2
191,2008306,55,25,4835,Shape6B.png,0,dod.mp3,Shape10B.jpg,3
191,2008306,54,26,2247,Shape4B.png,1,fum.mp3,Shape4B.jpg,3
191,2008306,56,27,2094,Shape10B.png,1,dod.mp3,Shape10B.jpg,3
191,2008306,60,28,1812,Shape11B.png,1,pag.mp3,Shape11B.jpg,3
191,2008306,62,29,2066,Shape3B.png,1,beb.mp3,Shape3B.jpg,3
191,2008306,61,30,2461,Shape7B.png,1,saf.mp3,Shape7B.jpg,3
191,2008306,66,32,2719,Shape8B.png,1,dep.mp3,Shape8B.jpg,3
191,2008306,65,33,4315,Shape9B.png,1,sut.mp3,Shape9B.jpg,3
191,2008306,71,35,2214,Shape8B.png,1,dep.mp3,Shape8B.jpg,3
165,2008292,13,1,1800.995,Shape10B.png,1,dod.mp3,Shape10B.jpg,1
165,2008292,14,2,2984.42,Shape7B.png,1,saf.mp3,Shape7B.jpg,1
165,2008292,12,3,2821.905,Shape3B.png,1,beb.mp3,Shape3B.jpg,1
165,2008292,19,4,2417.305,Shape3B.png,0,dep.mp3,Shape8B.jpg,1
165,2008292,18,5,3717.795,Shape11B.png,1,pag.mp3,Shape11B.jpg,1
165,2008292,17,6,3430.75,Shape12B.png,1,pof.mp3,Shape12B.jpg,1
165,2008292,23,7,4396.595,Shape2B.png,1,fip.mp3,Shape2B.jpg,1
165,2008292,24,8,2842.335,Shape5B.png,1,gex.mp3,Shape5B.jpg,1
165,2008292,22,9,1370.42,Shape9B.png,1,sut.mp3,Shape9B.jpg,1
165,2008292,29,10,2047.535,Shape1B.png,1,bix.mp3,Shape1B.jpg,1
165,2008292,28,11,3159.495,Shape7B.png,1,saf.mp3,Shape7B.jpg,1
165,2008292,33,13,4377.415,Shape2B.png,0,bix.mp3,Shape1B.jpg,2
165,2008292,35,14,2562.5,Shape6B.png,1,gop.mp3,Shape6B.jpg,2
165,2008292,38,16,2782.87,Shape1B.png,1,bix.mp3,Shape1B.jpg,2
165,2008292,40,17,2186.23,Shape2B.png,1,fip.mp3,Shape2B.jpg,2
165,2008292,39,18,1141.09,Shape3B.png,0,fum.mp3,Shape4B.jpg,2
165,2008292,45,20,1312.3,Shape9B.png,1,sut.mp3,Shape9B.jpg,2
165,2008292,44,21,953,Shape3B.png,1,beb.mp3,Shape3B.jpg,2
165,2008292,51,22,3281.845,Shape12B.png,1,pof.mp3,Shape12B.jpg,2
165,2008292,49,23,1200.38,Shape6B.png,1,gop.mp3,Shape6B.jpg,2
165,2008292,56,25,2591.12,Shape4B.png,0,dod.mp3,Shape10B.jpg,3
165,2008292,54,27,1615.335,Shape4B.png,1,fum.mp3,Shape4B.jpg,3
165,2008292,61,28,3119.995,Shape7B.png,1,saf.mp3,Shape7B.jpg,3
165,2008292,62,29,2246.025,Shape3B.png,1,beb.mp3,Shape3B.jpg,3
165,2008292,60,30,1575.64,Shape11B.png,1,pag.mp3,Shape11B.jpg,3
165,2008292,67,31,4206.095,Shape2B.png,0,pag.mp3,Shape11B.jpg,3
165,2008292,65,32,1294.91,Shape9B.png,1,sut.mp3,Shape9B.jpg,3
165,2008292,66,33,1090.365,Shape8B.png,1,dep.mp3,Shape8B.jpg,3
165,2008292,72,34,2680.625,Shape2B.png,1,fip.mp3,Shape2B.jpg,3
165,2008292,70,36,3210.79,Shape6B.png,0,gex.mp3,Shape5B.jpg,3
167,1996087,13,1,1469.86,Shape10B.png,1,dod.mp3,Shape10B.jpg,1
167,1996087,14,2,1349.475,Shape7B.png,1,saf.mp3,Shape7B.jpg,1
167,1996087,12,3,1329.415,Shape3B.png,1,beb.mp3,Shape3B.jpg,1
167,1996087,18,4,1241.285,Shape11B.png,1,pag.mp3,Shape11B.jpg,1
167,1996087,17,5,1320.55,Shape12B.png,1,pof.mp3,Shape12B.jpg,1
167,1996087,19,6,2877.23,Shape3B.png,0,dep.mp3,Shape8B.jpg,1
167,1996087,24,7,1466.415,Shape5B.png,1,gex.mp3,Shape5B.jpg,1
167,1996087,22,8,1953.835,Shape9B.png,1,sut.mp3,Shape9B.jpg,1
167,1996087,23,9,1484.24,Shape2B.png,1,fip.mp3,Shape2B.jpg,1
167,1996087,28,10,1651.6,Shape7B.png,1,saf.mp3,Shape7B.jpg,1
167,1996087,30,11,1558.79,Shape5B.png,1,gex.mp3,Shape5B.jpg,1
167,1996087,29,12,951.92,Shape1B.png,1,bix.mp3,Shape1B.jpg,1
167,1996087,35,13,1558.955,Shape6B.png,1,gop.mp3,Shape6B.jpg,2
167,1996087,33,14,1579.79,Shape1B.png,1,bix.mp3,Shape1B.jpg,2
167,1996087,34,15,1548.71,Shape6B.png,1,gop.mp3,Shape6B.jpg,2
167,1996087,38,16,1965.37,Shape1B.png,1,bix.mp3,Shape1B.jpg,2
167,1996087,39,17,1367.1,Shape4B.png,1,fum.mp3,Shape4B.jpg,2
167,1996087,40,18,1399.415,Shape2B.png,1,fip.mp3,Shape2B.jpg,2
167,1996087,46,19,1654.475,Shape12B.png,1,pof.mp3,Shape12B.jpg,2
167,1996087,44,20,1547.255,Shape3B.png,1,beb.mp3,Shape3B.jpg,2
167,1996087,45,21,1527.725,Shape9B.png,1,sut.mp3,Shape9B.jpg,2
167,1996087,51,22,1413.05,Shape12B.png,1,pof.mp3,Shape12B.jpg,2
167,1996087,50,23,1287.83,Shape4B.png,1,fum.mp3,Shape4B.jpg,2
167,1996087,49,24,2617.995,Shape6B.png,1,gop.mp3,Shape6B.jpg,2
167,1996087,54,25,1602.575,Shape4B.png,1,fum.mp3,Shape4B.jpg,3
167,1996087,56,26,1586.5,Shape10B.png,1,dod.mp3,Shape10B.jpg,3
167,1996087,55,27,1592.475,Shape10B.png,1,dod.mp3,Shape10B.jpg,3
167,1996087,61,28,1456.045,Shape7B.png,1,saf.mp3,Shape7B.jpg,3
167,1996087,62,29,1498.845,Shape3B.png,1,beb.mp3,Shape3B.jpg,3
167,1996087,60,30,1622.25,Shape11B.png,1,pag.mp3,Shape11B.jpg,3
167,1996087,65,31,1724.175,Shape9B.png,1,sut.mp3,Shape9B.jpg,3
167,1996087,67,32,1820.755,Shape11B.png,1,pag.mp3,Shape11B.jpg,3
167,1996087,66,33,1407.71,Shape8B.png,1,dep.mp3,Shape8B.jpg,3
167,1996087,72,34,1443.14,Shape2B.png,1,fip.mp3,Shape2B.jpg,3
167,1996087,71,35,2212.505,Shape8B.png,1,dep.mp3,Shape8B.jpg,3
167,1996087,70,36,1441.255,Shape5B.png,1,gex.mp3,Shape5B.jpg,3
28,1991003,12,1,4023.965,Shape3B.png,1,beb.mp3,Shape3B.jpg,1
28,1991003,13,2,3214.705,Shape11B.png,0,dod.mp3,Shape10B.jpg,1
28,1991003,14,3,2118.02,Shape7B.png,1,saf.mp3,Shape7B.jpg,1
28,1991003,19,4,3801.065,Shape8B.png,1,dep.mp3,Shape8B.jpg,1
28,1991003,17,5,3183.73,Shape12B.png,1,pof.mp3,Shape12B.jpg,1
28,1991003,18,6,2471.58,Shape11B.png,1,pag.mp3,Shape11B.jpg,1
28,1991003,24,7,4211.95,Shape5B.png,1,gex.mp3,Shape5B.jpg,1
28,1991003,22,8,3916.32,Shape9B.png,1,sut.mp3,Shape9B.jpg,1
28,1991003,23,9,2123.705,Shape2B.png,1,fip.mp3,Shape2B.jpg,1
28,1991003,28,10,3088.39,Shape7B.png,1,saf.mp3,Shape7B.jpg,1
28,1991003,29,11,2146.64,Shape1B.png,1,bix.mp3,Shape1B.jpg,1
28,1991003,30,12,2336.75,Shape5B.png,1,gex.mp3,Shape5B.jpg,1
28,1991003,34,13,3466.085,Shape6B.png,1,gop.mp3,Shape6B.jpg,2
28,1991003,35,14,2683.235,Shape6B.png,1,gop.mp3,Shape6B.jpg,2
28,1991003,39,16,2722.96,Shape4B.png,1,fum.mp3,Shape4B.jpg,2
28,1991003,38,17,2271.94,Shape1B.png,1,bix.mp3,Shape1B.jpg,2
28,1991003,40,18,3484.935,Shape2B.png,1,fip.mp3,Shape2B.jpg,2
28,1991003,45,19,2837.345,Shape9B.png,1,sut.mp3,Shape9B.jpg,2
28,1991003,44,20,3837.235,Shape3B.png,1,beb.mp3,Shape3B.jpg,2
28,1991003,49,22,2284.095,Shape6B.png,1,gop.mp3,Shape6B.jpg,2
28,1991003,51,23,2380.63,Shape12B.png,1,pof.mp3,Shape12B.jpg,2
28,1991003,50,24,3146.305,Shape4B.png,1,fum.mp3,Shape4B.jpg,2
28,1991003,55,25,1911.615,Shape10B.png,1,dod.mp3,Shape10B.jpg,3
28,1991003,56,26,1544.09,Shape10B.png,1,dod.mp3,Shape10B.jpg,3
28,1991003,54,27,1845.63,Shape4B.png,1,fum.mp3,Shape4B.jpg,3
28,1991003,61,28,1956.735,Shape7B.png,1,saf.mp3,Shape7B.jpg,3
28,1991003,60,29,2411.71,Shape11B.png,1,pag.mp3,Shape11B.jpg,3
28,1991003,62,30,3082.61,Shape3B.png,1,beb.mp3,Shape3B.jpg,3
28,1991003,67,31,2071.08,Shape11B.png,1,pag.mp3,Shape11B.jpg,3
28,1991003,65,32,1856.62,Shape9B.png,1,sut.mp3,Shape9B.jpg,3
28,1991003,66,33,3360.15,Shape8B.png,1,dep.mp3,Shape8B.jpg,3
28,1991003,71,34,2061.565,Shape8B.png,1,dep.mp3,Shape8B.jpg,3
28,1991003,72,35,3698.535,Shape2B.png,1,fip.mp3,Shape2B.jpg,3
28,1991003,70,36,3140.435,Shape5B.png,1,gex.mp3,Shape5B.jpg,3
7,1985863,13,1,2520,Shape10B.png,1,dod.mp3,Shape10B.jpg,1
7,1985863,14,2,4133,Shape7B.png,1,saf.mp3,Shape7B.jpg,1
7,1985863,12,3,2806,Shape3B.png,1,beb.mp3,Shape3B.jpg,1
7,1985863,17,4,1837,Shape12B.png,1,pof.mp3,Shape12B.jpg,1
7,1985863,19,5,2353,Shape8B.png,1,dep.mp3,Shape8B.jpg,1
7,1985863,18,6,2408,Shape11B.png,1,pag.mp3,Shape11B.jpg,1
7,1985863,23,7,3312,Shape2B.png,1,fip.mp3,Shape2B.jpg,1
7,1985863,24,8,1921,Shape5B.png,1,gex.mp3,Shape5B.jpg,1
7,1985863,22,9,2686,Shape9B.png,1,sut.mp3,Shape9B.jpg,1
7,1985863,29,10,1673,Shape1B.png,1,bix.mp3,Shape1B.jpg,1
7,1985863,28,11,2911,Shape11B.png,0,saf.mp3,Shape7B.jpg,1
7,1985863,30,12,3034,Shape5B.png,1,gex.mp3,Shape5B.jpg,1
7,1985863,35,13,2583,Shape6B.png,1,gop.mp3,Shape6B.jpg,2
7,1985863,34,14,1990,Shape1B.png,0,gop.mp3,Shape6B.jpg,2
7,1985863,33,15,2130,Shape1B.png,1,bix.mp3,Shape1B.jpg,2
7,1985863,40,16,2417,Shape2B.png,1,fip.mp3,Shape2B.jpg,2
7,1985863,39,17,2516,Shape4B.png,1,fum.mp3,Shape4B.jpg,2
7,1985863,38,18,3914,Shape1B.png,1,bix.mp3,Shape1B.jpg,2
7,1985863,44,19,4975,Shape3B.png,1,beb.mp3,Shape3B.jpg,2
7,1985863,45,20,3463,Shape9B.png,1,sut.mp3,Shape9B.jpg,2
7,1985863,46,21,2219,Shape7B.png,0,pof.mp3,Shape12B.jpg,2
7,1985863,49,22,4395,Shape6B.png,1,gop.mp3,Shape6B.jpg,2
7,1985863,51,23,2024,Shape12B.png,1,pof.mp3,Shape12B.jpg,2
7,1985863,50,24,2090,Shape4B.png,1,fum.mp3,Shape4B.jpg,2
7,1985863,54,25,4231,Shape4B.png,1,fum.mp3,Shape4B.jpg,3
7,1985863,56,26,2747,Shape10B.png,1,dod.mp3,Shape10B.jpg,3
7,1985863,61,28,2774,Shape7B.png,1,saf.mp3,Shape7B.jpg,3
7,1985863,60,29,2093,Shape11B.png,1,pag.mp3,Shape11B.jpg,3
7,1985863,62,30,4672,Shape3B.png,1,beb.mp3,Shape3B.jpg,3
7,1985863,65,31,2103,Shape9B.png,1,sut.mp3,Shape9B.jpg,3
7,1985863,66,32,2219,Shape8B.png,1,dep.mp3,Shape8B.jpg,3
7,1985863,67,33,2593,Shape11B.png,1,pag.mp3,Shape11B.jpg,3
7,1985863,72,34,2699,Shape2B.png,1,fip.mp3,Shape2B.jpg,3
7,1985863,70,35,2339,Shape5B.png,1,gex.mp3,Shape5B.jpg,3
7,1985863,71,36,1917,Shape8B.png,1,dep.mp3,Shape8B.jpg,3
202,1985749,13,1,3370.29,Shape11B.png,0,dod.mp3,Shape10B.jpg,1
202,1985749,14,3,1687.415,Shape7B.png,1,saf.mp3,Shape7B.jpg,1
202,1985749,18,4,3970.04,Shape11B.png,1,pag.mp3,Shape11B.jpg,1
202,1985749,19,5,2591.335,Shape3B.png,0,dep.mp3,Shape8B.jpg,1
202,1985749,17,6,2610.065,Shape12B.png,1,pof.mp3,Shape12B.jpg,1
202,1985749,22,7,2173.225,Shape9B.png,1,sut.mp3,Shape9B.jpg,1
202,1985749,23,8,2443.985,Shape2B.png,1,fip.mp3,Shape2B.jpg,1
202,1985749,24,9,1973.67,Shape5B.png,1,gex.mp3,Shape5B.jpg,1
202,1985749,29,10,2155.13,Shape1B.png,1,bix.mp3,Shape1B.jpg,1
202,1985749,28,11,2164.12,Shape11B.png,0,saf.mp3,Shape7B.jpg,1
202,1985749,30,12,2241.78,Shape5B.png,1,gex.mp3,Shape5B.jpg,1
202,1985749,34,13,4450.025,Shape6B.png,1,gop.mp3,Shape6B.jpg,2
202,1985749,35,14,3411.675,Shape6B.png,1,gop.mp3,Shape6B.jpg,2
202,1985749,33,15,3343.635,Shape1B.png,1,bix.mp3,Shape1B.jpg,2
202,1985749,38,16,2092.53,Shape1B.png,1,bix.mp3,Shape1B.jpg,2
202,1985749,39,17,3093.25,Shape4B.png,1,fum.mp3,Shape4B.jpg,2
202,1985749,40,18,2279.625,Shape2B.png,1,fip.mp3,Shape2B.jpg,2
202,1985749,45,19,2424.135,Shape9B.png,1,sut.mp3,Shape9B.jpg,2
202,1985749,46,20,2405.515,Shape12B.png,1,pof.mp3,Shape12B.jpg,2
202,1985749,44,21,2094.655,Shape3B.png,1,beb.mp3,Shape3B.jpg,2
202,1985749,51,22,3415.775,Shape12B.png,1,pof.mp3,Shape12B.jpg,2
202,1985749,49,23,3216.41,Shape6B.png,1,gop.mp3,Shape6B.jpg,2
202,1985749,50,24,2311.25,Shape4B.png,1,fum.mp3,Shape4B.jpg,2
202,1985749,54,25,2665.585,Shape4B.png,1,fum.mp3,Shape4B.jpg,3
202,1985749,56,26,2717.28,Shape10B.png,1,dod.mp3,Shape10B.jpg,3
202,1985749,61,28,2206.53,Shape7B.png,1,saf.mp3,Shape7B.jpg,3
202,1985749,60,29,3303.535,Shape11B.png,1,pag.mp3,Shape11B.jpg,3
202,1985749,62,30,3934.86,Shape3B.png,1,beb.mp3,Shape3B.jpg,3
202,1985749,66,32,3141.51,Shape8B.png,1,dep.mp3,Shape8B.jpg,3
202,1985749,67,33,2797.055,Shape11B.png,1,pag.mp3,Shape11B.jpg,3
202,1985749,72,34,2440.855,Shape2B.png,1,fip.mp3,Shape2B.jpg,3
202,1985749,71,35,2105.99,Shape5B.png,0,dep.mp3,Shape8B.jpg,3
202,1985749,70,36,4878.045,Shape5B.png,1,gex.mp3,Shape5B.jpg,3
212,1980930,14,1,1899.505,Shape7B.png,1,saf.mp3,Shape7B.jpg,1
212,1980930,12,2,2051.695,Shape3B.png,1,beb.mp3,Shape3B.jpg,1
212,1980930,13,3,1457.835,Shape10B.png,1,dod.mp3,Shape10B.jpg,1
212,1980930,18,4,1800.385,Shape11B.png,1,pag.mp3,Shape11B.jpg,1
212,1980930,17,5,2101.795,Shape12B.png,1,pof.mp3,Shape12B.jpg,1
212,1980930,19,6,2142.095,Shape8B.png,1,dep.mp3,Shape8B.jpg,1
212,1980930,23,7,2410.41,Shape2B.png,1,fip.mp3,Shape2B.jpg,1
212,1980930,24,8,1653.815,Shape5B.png,1,gex.mp3,Shape5B.jpg,1
212,1980930,22,9,2170.475,Shape8B.png,0,sut.mp3,Shape9B.jpg,1
212,1980930,28,10,2011.305,Shape7B.png,1,saf.mp3,Shape7B.jpg,1
212,1980930,30,11,2478.82,Shape5B.png,1,gex.mp3,Shape5B.jpg,1
212,1980930,29,12,1938.97,Shape1B.png,1,bix.mp3,Shape1B.jpg,1
212,1980930,35,13,1728.88,Shape6B.png,1,gop.mp3,Shape6B.jpg,2
212,1980930,33,14,1885.91,Shape1B.png,1,bix.mp3,Shape1B.jpg,2
212,1980930,34,15,1252.335,Shape6B.png,1,gop.mp3,Shape6B.jpg,2
212,1980930,40,16,2055.59,Shape2B.png,1,fip.mp3,Shape2B.jpg,2
212,1980930,39,17,1604.76,Shape4B.png,1,fum.mp3,Shape4B.jpg,2
212,1980930,38,18,1753.63,Shape1B.png,1,bix.mp3,Shape1B.jpg,2
212,1980930,46,19,1527.445,Shape12B.png,1,pof.mp3,Shape12B.jpg,2
212,1980930,44,20,1473.755,Shape3B.png,1,beb.mp3,Shape3B.jpg,2
212,1980930,45,21,2711.355,Shape9B.png,1,sut.mp3,Shape9B.jpg,2
212,1980930,51,22,2421.29,Shape1B.png,0,pof.mp3,Shape12B.jpg,2
212,1980930,50,23,1867.87,Shape9B.png,0,fum.mp3,Shape4B.jpg,2
212,1980930,49,24,3340.755,Shape6B.png,1,gop.mp3,Shape6B.jpg,2
212,1980930,56,25,1669.135,Shape10B.png,1,dod.mp3,Shape10B.jpg,3
212,1980930,55,26,3268.6,Shape10B.png,1,dod.mp3,Shape10B.jpg,3
212,1980930,54,27,2308.285,Shape4B.png,1,fum.mp3,Shape4B.jpg,3
212,1980930,60,28,1427.285,Shape12B.png,0,pag.mp3,Shape11B.jpg,3
212,1980930,61,29,1214.85,Shape7B.png,1,saf.mp3,Shape7B.jpg,3
212,1980930,62,30,1907.415,Shape3B.png,1,beb.mp3,Shape3B.jpg,3
212,1980930,65,31,1795.6,Shape9B.png,1,sut.mp3,Shape9B.jpg,3
212,1980930,66,32,1372.895,Shape8B.png,1,dep.mp3,Shape8B.jpg,3
212,1980930,67,33,1715.36,Shape11B.png,1,pag.mp3,Shape11B.jpg,3
212,1980930,71,34,1534.82,Shape8B.png,1,dep.mp3,Shape8B.jpg,3
212,1980930,72,35,1620.46,Shape2B.png,1,fip.mp3,Shape2B.jpg,3
212,1980930,70,36,2863.215,Shape5B.png,1,gex.mp3,Shape5B.jpg,3
132,1979500,14,1,1954.42,Shape7B.png,1,saf.mp3,Shape7B.jpg,1
132,1979500,13,2,1804.49,Shape10B.png,1,dod.mp3,Shape10B.jpg,1
132,1979500,12,3,2941.53,Shape3B.png,1,beb.mp3,Shape3B.jpg,1
132,1979500,18,5,2180.335,Shape11B.png,1,pag.mp3,Shape11B.jpg,1
132,1979500,19,6,1487.105,Shape8B.png,1,dep.mp3,Shape8B.jpg,1
132,1979500,24,7,3071.665,Shape5B.png,1,gex.mp3,Shape5B.jpg,1
132,1979500,23,8,1938.945,Shape2B.png,1,fip.mp3,Shape2B.jpg,1
132,1979500,22,9,4464.13,Shape8B.png,0,sut.mp3,Shape9B.jpg,1
132,1979500,29,10,1636.86,Shape1B.png,1,bix.mp3,Shape1B.jpg,1
132,1979500,30,11,2411.835,Shape10B.png,0,gex.mp3,Shape5B.jpg,1
132,1979500,28,12,2747.625,Shape7B.png,1,saf.mp3,Shape7B.jpg,1
132,1979500,33,13,2593.99,Shape2B.png,0,bix.mp3,Shape1B.jpg,2
132,1979500,35,14,2890.03,Shape6B.png,1,gop.mp3,Shape6B.jpg,2
132,1979500,34,15,2640.255,Shape6B.png,1,gop.mp3,Shape6B.jpg,2
132,1979500,38,16,1616.565,Shape1B.png,1,bix.mp3,Shape1B.jpg,2
132,1979500,39,17,2286.45,Shape4B.png,1,fum.mp3,Shape4B.jpg,2
132,1979500,40,18,3105.31,Shape2B.png,1,fip.mp3,Shape2B.jpg,2
132,1979500,45,19,1504.89,Shape9B.png,1,sut.mp3,Shape9B.jpg,2
132,1979500,44,20,1332.01,Shape3B.png,1,beb.mp3,Shape3B.jpg,2
132,1979500,46,21,1719.275,Shape12B.png,1,pof.mp3,Shape12B.jpg,2
132,1979500,49,22,2458.59,Shape8B.png,0,gop.mp3,Shape6B.jpg,2
132,1979500,51,23,3674.125,Shape1B.png,0,pof.mp3,Shape12B.jpg,2
132,1979500,50,24,3048.52,Shape9B.png,0,fum.mp3,Shape4B.jpg,2
132,1979500,56,25,4360.56,Shape10B.png,1,dod.mp3,Shape10B.jpg,3
132,1979500,55,26,1730.21,Shape6B.png,0,dod.mp3,Shape10B.jpg,3
132,1979500,54,27,2310.39,Shape4B.png,1,fum.mp3,Shape4B.jpg,3
132,1979500,61,28,1880.05,Shape7B.png,1,saf.mp3,Shape7B.jpg,3
132,1979500,60,29,3913.54,Shape11B.png,1,pag.mp3,Shape11B.jpg,3
132,1979500,65,31,2914.71,Shape10B.png,0,sut.mp3,Shape9B.jpg,3
132,1979500,66,32,2815.005,Shape8B.png,1,dep.mp3,Shape8B.jpg,3
132,1979500,67,33,3697.44,Shape11B.png,1,pag.mp3,Shape11B.jpg,3
132,1979500,72,34,3453.805,Shape2B.png,1,fip.mp3,Shape2B.jpg,3
132,1979500,71,35,1900.665,Shape5B.png,0,dep.mp3,Shape8B.jpg,3
132,1979500,70,36,1944.89,Shape5B.png,1,gex.mp3,Shape5B.jpg,3
171,1977516,12,1,1492.67,Shape3B.png,1,beb.mp3,Shape3B.jpg,1
171,1977516,14,2,1227.32,Shape7B.png,1,saf.mp3,Shape7B.jpg,1
171,1977516,13,3,3427.005,Shape11B.png,0,dod.mp3,Shape10B.jpg,1
171,1977516,19,4,2007.395,Shape8B.png,1,dep.mp3,Shape8B.jpg,1
171,1977516,17,5,1401.085,Shape12B.png,1,pof.mp3,Shape12B.jpg,1
171,1977516,18,6,3940.905,Shape11B.png,1,pag.mp3,Shape11B.jpg,1
171,1977516,24,7,2757.995,Shape5B.png,1,gex.mp3,Shape5B.jpg,1
171,1977516,23,8,1163.875,Shape2B.png,1,fip.mp3,Shape2B.jpg,1
171,1977516,22,9,1567.505,Shape9B.png,1,sut.mp3,Shape9B.jpg,1
171,1977516,28,11,3010.505,Shape7B.png,1,saf.mp3,Shape7B.jpg,1
171,1977516,29,12,1377.14,Shape1B.png,1,bix.mp3,Shape1B.jpg,1
171,1977516,35,13,4123.56,Shape6B.png,1,gop.mp3,Shape6B.jpg,2
171,1977516,34,14,1989.45,Shape6B.png,1,gop.mp3,Shape6B.jpg,2
171,1977516,39,16,1235.225,Shape4B.png,1,fum.mp3,Shape4B.jpg,2
171,1977516,40,17,3584.87,Shape2B.png,1,fip.mp3,Shape2B.jpg,2
171,1977516,38,18,1509.2,Shape1B.png,1,bix.mp3,Shape1B.jpg,2
171,1977516,45,19,1328.08,Shape9B.png,1,sut.mp3,Shape9B.jpg,2
171,1977516,44,20,855.9150001,Shape3B.png,1,beb.mp3,Shape3B.jpg,2
171,1977516,46,21,1698,Shape12B.png,1,pof.mp3,Shape12B.jpg,2
171,1977516,50,23,1366.92,Shape4B.png,1,fum.mp3,Shape4B.jpg,2
171,1977516,51,24,3576.555,Shape12B.png,1,pof.mp3,Shape12B.jpg,2
171,1977516,55,25,2878.905,Shape10B.png,1,dod.mp3,Shape10B.jpg,3
171,1977516,54,26,1226.09,Shape4B.png,1,fum.mp3,Shape4B.jpg,3
171,1977516,56,27,1514.42,Shape10B.png,1,dod.mp3,Shape10B.jpg,3
171,1977516,61,28,3912.09,Shape7B.png,1,saf.mp3,Shape7B.jpg,3
171,1977516,62,29,953.1200001,Shape3B.png,1,beb.mp3,Shape3B.jpg,3
171,1977516,60,30,2857.065,Shape11B.png,1,pag.mp3,Shape11B.jpg,3
171,1977516,65,31,4080.615,Shape9B.png,1,sut.mp3,Shape9B.jpg,3
171,1977516,67,32,3541.805,Shape11B.png,1,pag.mp3,Shape11B.jpg,3
171,1977516,66,33,2713.8,Shape8B.png,1,dep.mp3,Shape8B.jpg,3
171,1977516,71,34,1636.305,Shape8B.png,1,dep.mp3,Shape8B.jpg,3
171,1977516,72,35,4474.54,Shape2B.png,1,fip.mp3,Shape2B.jpg,3
171,1977516,70,36,3569.99,Shape5B.png,1,gex.mp3,Shape5B.jpg,3
192,1976817,14,1,1581.83,Shape7B.png,1,saf.mp3,Shape7B.jpg,1
192,1976817,13,2,1680.84,Shape11B.png,0,dod.mp3,Shape10B.jpg,1
192,1976817,12,3,1526.765,Shape3B.png,1,beb.mp3,Shape3B.jpg,1
192,1976817,19,4,1461.975,Shape8B.png,1,dep.mp3,Shape8B.jpg,1
192,1976817,17,5,1430.36,Shape12B.png,1,pof.mp3,Shape12B.jpg,1
192,1976817,18,6,1217.28,Shape11B.png,1,pag.mp3,Shape11B.jpg,1
192,1976817,22,7,1873.88,Shape8B.png,0,sut.mp3,Shape9B.jpg,1
192,1976817,24,8,1877.64,Shape5B.png,1,gex.mp3,Shape5B.jpg,1
192,1976817,23,9,2680,Shape2B.png,1,fip.mp3,Shape2B.jpg,1
192,1976817,28,10,1639.04,Shape7B.png,1,saf.mp3,Shape7B.jpg,1
192,1976817,30,11,1823.86,Shape5B.png,1,gex.mp3,Shape5B.jpg,1
192,1976817,29,12,1634.865,Shape1B.png,1,bix.mp3,Shape1B.jpg,1
192,1976817,33,13,1534.34,Shape1B.png,1,bix.mp3,Shape1B.jpg,2
192,1976817,35,14,2594.535,Shape6B.png,1,gop.mp3,Shape6B.jpg,2
192,1976817,34,15,2390.585,Shape6B.png,1,gop.mp3,Shape6B.jpg,2
192,1976817,40,16,2009.885,Shape2B.png,1,fip.mp3,Shape2B.jpg,2
192,1976817,39,17,2453.98,Shape4B.png,1,fum.mp3,Shape4B.jpg,2
192,1976817,38,18,1761.245,Shape1B.png,1,bix.mp3,Shape1B.jpg,2
192,1976817,45,19,2011.205,Shape9B.png,1,sut.mp3,Shape9B.jpg,2
192,1976817,44,20,1444.995,Shape3B.png,1,beb.mp3,Shape3B.jpg,2
192,1976817,46,21,2398.11,Shape12B.png,1,pof.mp3,Shape12B.jpg,2
192,1976817,49,22,2495.99,Shape8B.png,0,gop.mp3,Shape6B.jpg,2
192,1976817,50,23,2482.225,Shape4B.png,1,fum.mp3,Shape4B.jpg,2
192,1976817,51,24,3568.88,Shape12B.png,1,pof.mp3,Shape12B.jpg,2
192,1976817,55,25,1310.465,Shape10B.png,1,dod.mp3,Shape10B.jpg,3
192,1976817,54,26,1490.255,Shape4B.png,1,fum.mp3,Shape4B.jpg,3
192,1976817,56,27,1477.83,Shape10B.png,1,dod.mp3,Shape10B.jpg,3
192,1976817,60,28,2488.56,Shape12B.png,0,pag.mp3,Shape11B.jpg,3
192,1976817,62,29,1023.925,Shape3B.png,1,beb.mp3,Shape3B.jpg,3
192,1976817,61,30,1726.9,Shape7B.png,1,saf.mp3,Shape7B.jpg,3
192,1976817,65,31,1499.78,Shape9B.png,1,sut.mp3,Shape9B.jpg,3
192,1976817,67,32,1519.07,Shape11B.png,1,pag.mp3,Shape11B.jpg,3
192,1976817,66,33,2977.28,Shape8B.png,1,dep.mp3,Shape8B.jpg,3
192,1976817,70,34,1370.755,Shape5B.png,1,gex.mp3,Shape5B.jpg,3
192,1976817,71,35,2284.635,Shape8B.png,1,dep.mp3,Shape8B.jpg,3
192,1976817,72,36,1749.355,Shape2B.png,1,fip.mp3,Shape2B.jpg,3
195,1972417,13,1,2715.925,Shape10B.png,1,dod.mp3,Shape10B.jpg,1
195,1972417,14,2,1768.79,Shape7B.png,1,saf.mp3,Shape7B.jpg,1
195,1972417,12,3,3823.485,Shape3B.png,1,beb.mp3,Shape3B.jpg,1
195,1972417,19,4,1780.38,Shape8B.png,1,dep.mp3,Shape8B.jpg,1
195,1972417,17,5,1531.165,Shape12B.png,1,pof.mp3,Shape12B.jpg,1
195,1972417,18,6,1558.135,Shape11B.png,1,pag.mp3,Shape11B.jpg,1
195,1972417,23,7,1461.965,Shape2B.png,1,fip.mp3,Shape2B.jpg,1
195,1972417,24,8,1408.5,Shape5B.png,1,gex.mp3,Shape5B.jpg,1
195,1972417,22,9,1438.32,Shape9B.png,1,sut.mp3,Shape9B.jpg,1
195,1972417,30,10,1098.47,Shape5B.png,1,gex.mp3,Shape5B.jpg,1
195,1972417,29,11,1809.41,Shape1B.png,1,bix.mp3,Shape1B.jpg,1
195,1972417,28,12,1485.515,Shape7B.png,1,saf.mp3,Shape7B.jpg,1
195,1972417,35,13,1967.26,Shape6B.png,1,gop.mp3,Shape6B.jpg,2
195,1972417,33,14,1557.62,Shape1B.png,1,bix.mp3,Shape1B.jpg,2
195,1972417,34,15,1240.73,Shape6B.png,1,gop.mp3,Shape6B.jpg,2
195,1972417,38,16,1471.44,Shape1B.png,1,bix.mp3,Shape1B.jpg,2
195,1972417,39,17,1636.225,Shape4B.png,1,fum.mp3,Shape4B.jpg,2
195,1972417,40,18,1223.455,Shape2B.png,1,fip.mp3,Shape2B.jpg,2
195,1972417,46,19,1599.35,Shape12B.png,1,pof.mp3,Shape12B.jpg,2
195,1972417,45,20,1963.59,Shape9B.png,1,sut.mp3,Shape9B.jpg,2
195,1972417,44,21,1562.51,Shape3B.png,1,beb.mp3,Shape3B.jpg,2
195,1972417,51,22,3629.9,Shape12B.png,1,pof.mp3,Shape12B.jpg,2
195,1972417,49,23,2930.115,Shape8B.png,0,gop.mp3,Shape6B.jpg,2
195,1972417,50,24,2034.305,Shape4B.png,1,fum.mp3,Shape4B.jpg,2
195,1972417,56,25,1848.74,Shape10B.png,1,dod.mp3,Shape10B.jpg,3
195,1972417,55,26,1585.78,Shape10B.png,1,dod.mp3,Shape10B.jpg,3
195,1972417,54,27,1544.885,Shape4B.png,1,fum.mp3,Shape4B.jpg,3
195,1972417,60,28,1989.27,Shape11B.png,1,pag.mp3,Shape11B.jpg,3
195,1972417,61,29,1733.24,Shape7B.png,1,saf.mp3,Shape7B.jpg,3
195,1972417,62,30,3632.47,Shape3B.png,1,beb.mp3,Shape3B.jpg,3
195,1972417,66,31,1872.65,Shape8B.png,1,dep.mp3,Shape8B.jpg,3
195,1972417,65,32,1989.885,Shape9B.png,1,sut.mp3,Shape9B.jpg,3
195,1972417,67,33,2232.105,Shape11B.png,1,pag.mp3,Shape11B.jpg,3
195,1972417,70,34,1970.05,Shape5B.png,1,gex.mp3,Shape5B.jpg,3
195,1972417,71,35,1850.595,Shape8B.png,1,dep.mp3,Shape8B.jpg,3
195,1972417,72,36,1812.13,Shape2B.png,1,fip.mp3,Shape2B.jpg,3
52,1961729,12,1,1379.525,Shape3B.png,1,beb.mp3,Shape3B.jpg,1
52,1961729,14,2,2039.445,Shape7B.png,1,saf.mp3,Shape7B.jpg,1
52,1961729,13,3,2402.57,Shape10B.png,1,dod.mp3,Shape10B.jpg,1
52,1961729,19,4,3962.68,Shape8B.png,1,dep.mp3,Shape8B.jpg,1
52,1961729,17,5,2107.185,Shape12B.png,1,pof.mp3,Shape12B.jpg,1
52,1961729,18,6,3351.27,Shape11B.png,1,pag.mp3,Shape11B.jpg,1
52,1961729,23,7,2319.605,Shape2B.png,1,fip.mp3,Shape2B.jpg,1
52,1961729,22,8,2495.37,Shape9B.png,1,sut.mp3,Shape9B.jpg,1
52,1961729,24,9,1783.33,Shape5B.png,1,gex.mp3,Shape5B.jpg,1
52,1961729,29,10,2303.06,Shape1B.png,1,bix.mp3,Shape1B.jpg,1
52,1961729,30,11,1682.54,Shape5B.png,1,gex.mp3,Shape5B.jpg,1
52,1961729,35,13,1771.2,Shape6B.png,1,gop.mp3,Shape6B.jpg,2
52,1961729,34,15,2376.565,Shape6B.png,1,gop.mp3,Shape6B.jpg,2
52,1961729,39,16,2155.995,Shape4B.png,1,fum.mp3,Shape4B.jpg,2
52,1961729,40,17,3351.075,Shape2B.png,1,fip.mp3,Shape2B.jpg,2
52,1961729,38,18,2323.82,Shape1B.png,1,bix.mp3,Shape1B.jpg,2
52,1961729,44,19,1521.86,Shape3B.png,1,beb.mp3,Shape3B.jpg,2
52,1961729,46,20,2891.63,Shape12B.png,1,pof.mp3,Shape12B.jpg,2
52,1961729,45,21,1383.62,Shape9B.png,1,sut.mp3,Shape9B.jpg,2
52,1961729,51,22,1652.4,Shape12B.png,1,pof.mp3,Shape12B.jpg,2
52,1961729,49,23,1895.5,Shape6B.png,1,gop.mp3,Shape6B.jpg,2
52,1961729,50,24,1697.675,Shape4B.png,1,fum.mp3,Shape4B.jpg,2
52,1961729,55,25,2417.74,Shape10B.png,1,dod.mp3,Shape10B.jpg,3
52,1961729,54,26,1878.605,Shape4B.png,1,fum.mp3,Shape4B.jpg,3
52,1961729,56,27,994.445,Shape10B.png,1,dod.mp3,Shape10B.jpg,3
52,1961729,60,28,1700.58,Shape11B.png,1,pag.mp3,Shape11B.jpg,3
52,1961729,61,29,1291.34,Shape7B.png,1,saf.mp3,Shape7B.jpg,3
52,1961729,62,30,1361.76,Shape3B.png,1,beb.mp3,Shape3B.jpg,3
52,1961729,65,32,1499.295,Shape9B.png,1,sut.mp3,Shape9B.jpg,3
52,1961729,66,33,3217.465,Shape8B.png,1,dep.mp3,Shape8B.jpg,3
52,1961729,72,35,3654.865,Shape2B.png,1,fip.mp3,Shape2B.jpg,3
52,1961729,70,36,2263.925,Shape5B.png,1,gex.mp3,Shape5B.jpg,3
196,1966064,13,1,3603.87,Shape10B.png,1,dod.mp3,Shape10B.jpg,1
196,1966064,12,2,2832.555,Shape3B.png,1,beb.mp3,Shape3B.jpg,1
196,1966064,14,3,2798.77,Shape7B.png,1,saf.mp3,Shape7B.jpg,1
196,1966064,19,4,3340.27,Shape8B.png,1,dep.mp3,Shape8B.jpg,1
196,1966064,17,5,3008.63,Shape12B.png,1,pof.mp3,Shape12B.jpg,1
196,1966064,18,6,1801.935,Shape11B.png,1,pag.mp3,Shape11B.jpg,1
196,1966064,24,8,2584.18,Shape5B.png,1,gex.mp3,Shape5B.jpg,1
196,1966064,22,9,4636.75,Shape9B.png,1,sut.mp3,Shape9B.jpg,1
196,1966064,28,10,2138.37,Shape7B.png,1,saf.mp3,Shape7B.jpg,1
196,1966064,30,11,2053.55,Shape5B.png,1,gex.mp3,Shape5B.jpg,1
196,1966064,29,12,2576.4,Shape1B.png,1,bix.mp3,Shape1B.jpg,1
196,1966064,33,13,3863.345,Shape1B.png,1,bix.mp3,Shape1B.jpg,2
196,1966064,35,14,3626.315,Shape6B.png,1,gop.mp3,Shape6B.jpg,2
196,1966064,34,15,3095.55,Shape6B.png,1,gop.mp3,Shape6B.jpg,2
196,1966064,40,16,4433.285,Shape5B.png,0,fip.mp3,Shape2B.jpg,2
196,1966064,39,17,4314.355,Shape4B.png,1,fum.mp3,Shape4B.jpg,2
196,1966064,38,18,2881.07,Shape1B.png,1,bix.mp3,Shape1B.jpg,2
196,1966064,45,20,3450.11,Shape9B.png,1,sut.mp3,Shape9B.jpg,2
196,1966064,44,21,3426.39,Shape3B.png,1,beb.mp3,Shape3B.jpg,2
196,1966064,51,22,3289.6,Shape1B.png,0,pof.mp3,Shape12B.jpg,2
196,1966064,50,23,3824.455,Shape4B.png,1,fum.mp3,Shape4B.jpg,2
196,1966064,49,24,2625.42,Shape6B.png,1,gop.mp3,Shape6B.jpg,2
196,1966064,54,26,2989.095,Shape4B.png,1,fum.mp3,Shape4B.jpg,3
196,1966064,56,27,3098.19,Shape10B.png,1,dod.mp3,Shape10B.jpg,3
196,1966064,62,28,2636.78,Shape3B.png,1,beb.mp3,Shape3B.jpg,3
196,1966064,61,29,3957.09,Shape7B.png,1,saf.mp3,Shape7B.jpg,3
196,1966064,60,30,2127.81,Shape11B.png,1,pag.mp3,Shape11B.jpg,3
196,1966064,66,31,3193.535,Shape7B.png,0,dep.mp3,Shape8B.jpg,3
196,1966064,67,32,4789.72,Shape11B.png,1,pag.mp3,Shape11B.jpg,3
196,1966064,65,33,4978.225,Shape9B.png,1,sut.mp3,Shape9B.jpg,3
196,1966064,72,34,3279.845,Shape2B.png,1,fip.mp3,Shape2B.jpg,3
196,1966064,70,35,3521.215,Shape5B.png,1,gex.mp3,Shape5B.jpg,3
196,1966064,71,36,2813.005,Shape5B.png,0,dep.mp3,Shape8B.jpg,3
176,2051756,13,1,2059.375,Shape8B.png,1,dep.mp3,Shape8B.jpg,1
176,2051756,14,2,3739,Shape9B.png,0,fip.mp3,Shape2B.jpg,1
176,2051756,12,3,2121.13,Shape5B.png,1,gex.mp3,Shape5B.jpg,1
176,2051756,17,4,1773.835,Shape3B.png,1,beb.mp3,Shape3B.jpg,1
176,2051756,19,5,2072.96,Shape7B.png,1,saf.mp3,Shape7B.jpg,1
176,2051756,18,6,1734.775,Shape10B.png,1,dod.mp3,Shape10B.jpg,1
176,2051756,22,7,1619.8,Shape9B.png,1,sut.mp3,Shape9B.jpg,1
176,2051756,23,8,1612.38,Shape8B.png,1,dep.mp3,Shape8B.jpg,1
176,2051756,24,9,1567.03,Shape11B.png,1,pag.mp3,Shape11B.jpg,1
176,2051756,28,10,1869.59,Shape12B.png,1,pof.mp3,Shape12B.jpg,1
176,2051756,29,11,1980.335,Shape11B.png,1,pag.mp3,Shape11B.jpg,1
176,2051756,30,12,1991.475,Shape8B.png,1,dep.mp3,Shape8B.jpg,1
176,2051756,35,13,2132.355,Shape3B.png,1,beb.mp3,Shape3B.jpg,2
176,2051756,33,14,1677.64,Shape11B.png,1,pag.mp3,Shape11B.jpg,2
176,2051756,34,15,3224.345,Shape6B.png,0,saf.mp3,Shape7B.jpg,2
176,2051756,40,16,2022.58,Shape5B.png,1,gex.mp3,Shape5B.jpg,2
176,2051756,38,17,2034.25,Shape9B.png,1,sut.mp3,Shape9B.jpg,2
176,2051756,39,18,1549.58,Shape2B.png,1,fip.mp3,Shape2B.jpg,2
176,2051756,46,19,1700.19,Shape2B.png,1,fip.mp3,Shape2B.jpg,2
176,2051756,45,20,1736.685,Shape4B.png,1,fum.mp3,Shape4B.jpg,2
176,2051756,44,21,1927.685,Shape1B.png,1,bix.mp3,Shape1B.jpg,2
176,2051756,50,22,1711.865,Shape4B.png,1,fum.mp3,Shape4B.jpg,2
176,2051756,51,23,1496.16,Shape12B.png,1,pof.mp3,Shape12B.jpg,2
176,2051756,49,24,1461.72,Shape6B.png,1,gop.mp3,Shape6B.jpg,2
176,2051756,55,25,4322.55,Shape6B.png,1,gop.mp3,Shape6B.jpg,3
176,2051756,56,26,1747.035,Shape6B.png,1,gop.mp3,Shape6B.jpg,3
176,2051756,54,27,2145.7,Shape1B.png,1,bix.mp3,Shape1B.jpg,3
176,2051756,61,29,1423.025,Shape10B.png,1,dod.mp3,Shape10B.jpg,3
176,2051756,62,30,2916.955,Shape10B.png,1,dod.mp3,Shape10B.jpg,3
176,2051756,67,31,2090.87,Shape12B.png,1,pof.mp3,Shape12B.jpg,3
176,2051756,65,32,1877,Shape3B.png,1,beb.mp3,Shape3B.jpg,3
176,2051756,66,33,2315.325,Shape9B.png,1,sut.mp3,Shape9B.jpg,3
176,2051756,71,34,2270.96,Shape1B.png,1,bix.mp3,Shape1B.jpg,3
176,2051756,72,35,1512.665,Shape5B.png,1,gex.mp3,Shape5B.jpg,3
176,2051756,70,36,1731.365,Shape7B.png,1,saf.mp3,Shape7B.jpg,3
15,2030750,12,1,1241,Shape5B.png,1,gex.mp3,Shape5B.jpg,1
15,2030750,13,2,3158,Shape8B.png,1,dep.mp3,Shape8B.jpg,1
15,2030750,14,3,1626,Shape2B.png,1,fip.mp3,Shape2B.jpg,1
15,2030750,19,4,1574,Shape7B.png,1,saf.mp3,Shape7B.jpg,1
15,2030750,17,5,1836,Shape3B.png,1,beb.mp3,Shape3B.jpg,1
15,2030750,18,6,1924,Shape10B.png,1,dod.mp3,Shape10B.jpg,1
15,2030750,22,8,1662,Shape9B.png,1,sut.mp3,Shape9B.jpg,1
15,2030750,23,9,1801,Shape8B.png,1,dep.mp3,Shape8B.jpg,1
15,2030750,30,10,2041,Shape8B.png,1,dep.mp3,Shape8B.jpg,1
15,2030750,29,11,1553,Shape11B.png,1,pag.mp3,Shape11B.jpg,1
15,2030750,28,12,2185,Shape12B.png,1,pof.mp3,Shape12B.jpg,1
15,2030750,35,13,2760,Shape3B.png,1,beb.mp3,Shape3B.jpg,2
15,2030750,34,14,1614,Shape7B.png,1,saf.mp3,Shape7B.jpg,2
15,2030750,33,15,1919,Shape11B.png,1,pag.mp3,Shape11B.jpg,2
15,2030750,39,16,1772,Shape2B.png,1,fip.mp3,Shape2B.jpg,2
15,2030750,40,17,1559,Shape5B.png,1,gex.mp3,Shape5B.jpg,2
15,2030750,38,18,2174,Shape9B.png,1,sut.mp3,Shape9B.jpg,2
15,2030750,44,19,1404,Shape1B.png,1,bix.mp3,Shape1B.jpg,2
15,2030750,45,20,1898,Shape4B.png,1,fum.mp3,Shape4B.jpg,2
15,2030750,49,22,1684,Shape6B.png,1,gop.mp3,Shape6B.jpg,2
15,2030750,51,23,1714,Shape12B.png,1,pof.mp3,Shape12B.jpg,2
15,2030750,50,24,2340,Shape4B.png,1,fum.mp3,Shape4B.jpg,2
15,2030750,54,25,1921,Shape1B.png,1,bix.mp3,Shape1B.jpg,3
15,2030750,56,26,2190,Shape6B.png,1,gop.mp3,Shape6B.jpg,3
15,2030750,55,27,4172,Shape6B.png,1,gop.mp3,Shape6B.jpg,3
15,2030750,61,28,1448,Shape10B.png,1,dod.mp3,Shape10B.jpg,3
15,2030750,60,29,3138,Shape4B.png,1,fum.mp3,Shape4B.jpg,3
15,2030750,62,30,1692,Shape10B.png,1,dod.mp3,Shape10B.jpg,3
15,2030750,67,31,1933,Shape12B.png,1,pof.mp3,Shape12B.jpg,3
15,2030750,66,32,1994,Shape9B.png,1,sut.mp3,Shape9B.jpg,3
15,2030750,65,33,1564,Shape3B.png,1,beb.mp3,Shape3B.jpg,3
15,2030750,71,34,1617,Shape1B.png,1,bix.mp3,Shape1B.jpg,3
15,2030750,70,35,1897,Shape7B.png,1,saf.mp3,Shape7B.jpg,3
15,2030750,72,36,1648,Shape5B.png,1,gex.mp3,Shape5B.jpg,3
206,1996520,13,1,3000,Shape8B.png,1,dep.mp3,Shape8B.jpg,1
206,1996520,12,2,2348,Shape5B.png,1,gex.mp3,Shape5B.jpg,1
206,1996520,14,3,2284,Shape2B.png,1,fip.mp3,Shape2B.jpg,1
206,1996520,18,4,2078,Shape10B.png,1,dod.mp3,Shape10B.jpg,1
206,1996520,19,6,1536,Shape7B.png,1,saf.mp3,Shape7B.jpg,1
206,1996520,24,7,2851,Shape11B.png,1,pag.mp3,Shape11B.jpg,1
206,1996520,23,8,3487,Shape8B.png,1,dep.mp3,Shape8B.jpg,1
206,1996520,22,9,1841,Shape9B.png,1,sut.mp3,Shape9B.jpg,1
206,1996520,30,10,2390,Shape8B.png,1,dep.mp3,Shape8B.jpg,1
206,1996520,29,11,1315,Shape11B.png,1,pag.mp3,Shape11B.jpg,1
206,1996520,28,12,2589,Shape12B.png,1,pof.mp3,Shape12B.jpg,1
206,1996520,34,13,2054,Shape7B.png,1,saf.mp3,Shape7B.jpg,2
206,1996520,35,14,1677,Shape3B.png,1,beb.mp3,Shape3B.jpg,2
206,1996520,33,15,1907,Shape11B.png,1,pag.mp3,Shape11B.jpg,2
206,1996520,40,16,4252,Shape5B.png,1,gex.mp3,Shape5B.jpg,2
206,1996520,39,17,3255,Shape2B.png,1,fip.mp3,Shape2B.jpg,2
206,1996520,38,18,2035,Shape9B.png,1,sut.mp3,Shape9B.jpg,2
206,1996520,45,19,1556,Shape4B.png,1,fum.mp3,Shape4B.jpg,2
206,1996520,44,20,2119,Shape1B.png,1,bix.mp3,Shape1B.jpg,2
206,1996520,46,21,3045,Shape2B.png,1,fip.mp3,Shape2B.jpg,2
206,1996520,51,22,3573,Shape12B.png,1,pof.mp3,Shape12B.jpg,2
206,1996520,49,23,2832,Shape6B.png,1,gop.mp3,Shape6B.jpg,2
206,1996520,50,24,3369,Shape4B.png,1,fum.mp3,Shape4B.jpg,2
206,1996520,54,25,2621,Shape1B.png,1,bix.mp3,Shape1B.jpg,3
206,1996520,55,26,1859,Shape6B.png,1,gop.mp3,Shape6B.jpg,3
206,1996520,56,27,2139,Shape6B.png,1,gop.mp3,Shape6B.jpg,3
206,1996520,60,28,2601,Shape4B.png,1,fum.mp3,Shape4B.jpg,3
206,1996520,62,29,1717,Shape10B.png,1,dod.mp3,Shape10B.jpg,3
206,1996520,61,30,3900,Shape10B.png,1,dod.mp3,Shape10B.jpg,3
206,1996520,66,31,3140,Shape9B.png,1,sut.mp3,Shape9B.jpg,3
206,1996520,67,32,2007,Shape12B.png,1,pof.mp3,Shape12B.jpg,3
206,1996520,65,33,2847,Shape3B.png,1,beb.mp3,Shape3B.jpg,3
206,1996520,71,34,1600,Shape1B.png,1,bix.mp3,Shape1B.jpg,3
206,1996520,70,35,2381,Shape7B.png,1,saf.mp3,Shape7B.jpg,3
206,1996520,72,36,3327,Shape5B.png,1,gex.mp3,Shape5B.jpg,3
71,1996492,13,1,2953.695,Shape8B.png,1,dep.mp3,Shape8B.jpg,1
71,1996492,14,2,1168.46,Shape2B.png,1,fip.mp3,Shape2B.jpg,1
71,1996492,12,3,1124.17,Shape5B.png,1,gex.mp3,Shape5B.jpg,1
71,1996492,18,5,1139.16,Shape10B.png,1,dod.mp3,Shape10B.jpg,1
71,1996492,19,6,2231.58,Shape7B.png,1,saf.mp3,Shape7B.jpg,1
71,1996492,22,8,1917.74,Shape9B.png,1,sut.mp3,Shape9B.jpg,1
71,1996492,23,9,1779.045,Shape8B.png,1,dep.mp3,Shape8B.jpg,1
71,1996492,28,10,1451.74,Shape12B.png,1,pof.mp3,Shape12B.jpg,1
71,1996492,29,11,2948.22,Shape11B.png,1,pag.mp3,Shape11B.jpg,1
71,1996492,30,12,3112.8,Shape3B.png,0,dep.mp3,Shape8B.jpg,1
71,1996492,34,13,1134.57,Shape7B.png,1,saf.mp3,Shape7B.jpg,2
71,1996492,35,14,1298.69,Shape3B.png,1,beb.mp3,Shape3B.jpg,2
71,1996492,33,15,972.195,Shape11B.png,1,pag.mp3,Shape11B.jpg,2
71,1996492,39,16,1206.245,Shape2B.png,1,fip.mp3,Shape2B.jpg,2
71,1996492,40,17,2183.195,Shape5B.png,1,gex.mp3,Shape5B.jpg,2
71,1996492,38,18,1097.405,Shape9B.png,1,sut.mp3,Shape9B.jpg,2
71,1996492,46,19,1247.375,Shape2B.png,1,fip.mp3,Shape2B.jpg,2
71,1996492,45,20,2733.645,Shape4B.png,1,fum.mp3,Shape4B.jpg,2
71,1996492,44,21,2180.97,Shape1B.png,1,bix.mp3,Shape1B.jpg,2
71,1996492,51,22,1236.915,Shape12B.png,1,pof.mp3,Shape12B.jpg,2
71,1996492,49,23,1151.25,Shape6B.png,1,gop.mp3,Shape6B.jpg,2
71,1996492,50,24,1241.22,Shape4B.png,1,fum.mp3,Shape4B.jpg,2
71,1996492,56,25,1679.885,Shape6B.png,1,gop.mp3,Shape6B.jpg,3
71,1996492,54,27,1600.1,Shape1B.png,1,bix.mp3,Shape1B.jpg,3
71,1996492,62,28,2969.065,Shape10B.png,1,dod.mp3,Shape10B.jpg,3
71,1996492,61,29,2992.01,Shape10B.png,1,dod.mp3,Shape10B.jpg,3
71,1996492,60,30,1412.91,Shape4B.png,1,fum.mp3,Shape4B.jpg,3
71,1996492,67,31,3837.04,Shape12B.png,1,pof.mp3,Shape12B.jpg,3
